subj_id,BLOCKNAME,STATUS,KEY,RT,memory,trialcount,nback1,nback2,nback3
s.28a9de55-ec17-493b-9997-ae84bf93f62c,training,1,2,1803,5,1,8,0,0
s.28a9de55-ec17-493b-9997-ae84bf93f62c,training,1,2,727,1,2,3,8,0
s.28a9de55-ec17-493b-9997-ae84bf93f62c,training,1,2,834,4,3,5,3,8
s.28a9de55-ec17-493b-9997-ae84bf93f62c,training,1,2,610,5,4,6,5,3
s.28a9de55-ec17-493b-9997-ae84bf93f62c,training,2,1,1613,5,5,8,6,5
s.28a9de55-ec17-493b-9997-ae84bf93f62c,training,3,1,2000,2,6,10,8,6
s.28a9de55-ec17-493b-9997-ae84bf93f62c,training,1,2,1010,5,7,3,10,8
s.28a9de55-ec17-493b-9997-ae84bf93f62c,training,1,2,1806,3,8,12,3,10
s.28a9de55-ec17-493b-9997-ae84bf93f62c,training,1,2,960,2,9,7,12,3
s.28a9de55-ec17-493b-9997-ae84bf93f62c,training,2,1,1257,4,10,7,7,12
s.28a9de55-ec17-493b-9997-ae84bf93f62c,training,2,2,1091,1,11,12,7,7
s.28a9de55-ec17-493b-9997-ae84bf93f62c,training,3,1,2000,4,12,11,12,7
s.28a9de55-ec17-493b-9997-ae84bf93f62c,training,1,2,545,2,13,10,11,12
s.28a9de55-ec17-493b-9997-ae84bf93f62c,training,1,2,1273,4,14,3,10,11
s.28a9de55-ec17-493b-9997-ae84bf93f62c,training,1,2,1067,5,15,1,3,10
s.28a9de55-ec17-493b-9997-ae84bf93f62c,nback_real1,1,2,1692,3,1,15,1,3
s.28a9de55-ec17-493b-9997-ae84bf93f62c,nback_real1,1,2,650,1,2,11,15,1
s.28a9de55-ec17-493b-9997-ae84bf93f62c,nback_real1,1,2,773,4,3,2,11,15
s.28a9de55-ec17-493b-9997-ae84bf93f62c,nback_real1,1,1,1099,1,4,15,2,11
s.28a9de55-ec17-493b-9997-ae84bf93f62c,nback_real1,1,2,803,4,5,3,15,2
s.28a9de55-ec17-493b-9997-ae84bf93f62c,nback_real1,3,1,2000,2,6,7,3,15
s.28a9de55-ec17-493b-9997-ae84bf93f62c,nback_real1,1,2,998,5,7,2,7,3
s.28a9de55-ec17-493b-9997-ae84bf93f62c,nback_real1,1,2,725,4,8,1,2,7
s.28a9de55-ec17-493b-9997-ae84bf93f62c,nback_real1,3,1,2000,2,9,2,1,2
s.28a9de55-ec17-493b-9997-ae84bf93f62c,nback_real1,1,1,729,1,10,2,2,1
s.28a9de55-ec17-493b-9997-ae84bf93f62c,nback_real1,2,2,625,1,11,1,2,2
s.28a9de55-ec17-493b-9997-ae84bf93f62c,nback_real1,2,1,854,4,12,14,1,2
s.28a9de55-ec17-493b-9997-ae84bf93f62c,nback_real1,1,1,1609,1,13,2,14,1
s.28a9de55-ec17-493b-9997-ae84bf93f62c,nback_real1,2,2,675,1,14,1,2,14
s.28a9de55-ec17-493b-9997-ae84bf93f62c,nback_real1,1,1,919,1,15,14,1,2
s.28a9de55-ec17-493b-9997-ae84bf93f62c,nback_real1,2,1,1553,5,16,3,14,1
s.28a9de55-ec17-493b-9997-ae84bf93f62c,nback_real1,1,2,1442,5,17,12,3,14
s.28a9de55-ec17-493b-9997-ae84bf93f62c,nback_real1,1,2,1249,4,18,9,12,3
s.28a9de55-ec17-493b-9997-ae84bf93f62c,nback_real1,2,1,895,4,19,8,9,12
s.28a9de55-ec17-493b-9997-ae84bf93f62c,nback_real1,1,2,1488,3,20,14,8,9
s.28a9de55-ec17-493b-9997-ae84bf93f62c,nback_real1,1,2,609,3,21,1,14,8
s.28a9de55-ec17-493b-9997-ae84bf93f62c,nback_real1,2,1,1341,2,22,3,1,14
s.28a9de55-ec17-493b-9997-ae84bf93f62c,nback_real1,1,2,1268,4,23,6,3,1
s.28a9de55-ec17-493b-9997-ae84bf93f62c,nback_real1,1,2,1029,5,24,10,6,3
s.28a9de55-ec17-493b-9997-ae84bf93f62c,nback_real1,2,2,566,1,25,3,10,6
s.28a9de55-ec17-493b-9997-ae84bf93f62c,nback_real1,2,2,1588,1,26,6,3,10
s.28a9de55-ec17-493b-9997-ae84bf93f62c,nback_real1,1,2,709,3,27,4,6,3
s.28a9de55-ec17-493b-9997-ae84bf93f62c,nback_real1,3,1,2000,5,28,12,4,6
s.28a9de55-ec17-493b-9997-ae84bf93f62c,nback_real1,1,2,693,4,29,7,12,4
s.28a9de55-ec17-493b-9997-ae84bf93f62c,nback_real1,1,2,1191,4,30,1,7,12
s.28a9de55-ec17-493b-9997-ae84bf93f62c,nback_real2,3,1,2000,1,1,9,0,0
s.28a9de55-ec17-493b-9997-ae84bf93f62c,nback_real2,1,2,707,4,2,10,9,0
s.28a9de55-ec17-493b-9997-ae84bf93f62c,nback_real2,1,2,543,2,3,2,10,9
s.28a9de55-ec17-493b-9997-ae84bf93f62c,nback_real2,1,2,970,3,4,12,2,10
s.28a9de55-ec17-493b-9997-ae84bf93f62c,nback_real2,1,1,1695,1,5,10,12,2
s.28a9de55-ec17-493b-9997-ae84bf93f62c,nback_real2,1,1,666,1,6,2,10,12
s.28a9de55-ec17-493b-9997-ae84bf93f62c,nback_real2,1,2,716,4,7,9,2,10
s.28a9de55-ec17-493b-9997-ae84bf93f62c,nback_real2,1,2,1461,4,8,1,9,2
s.28a9de55-ec17-493b-9997-ae84bf93f62c,nback_real2,1,2,1108,2,9,4,1,9
s.28a9de55-ec17-493b-9997-ae84bf93f62c,nback_real2,1,2,1817,4,10,7,4,1
s.28a9de55-ec17-493b-9997-ae84bf93f62c,nback_real2,1,2,1519,3,11,10,7,4
s.28a9de55-ec17-493b-9997-ae84bf93f62c,nback_real2,1,2,1237,4,12,6,10,7
s.28a9de55-ec17-493b-9997-ae84bf93f62c,nback_real2,1,1,1794,1,13,7,6,10
s.28a9de55-ec17-493b-9997-ae84bf93f62c,nback_real2,3,1,2000,2,14,6,7,6
s.28a9de55-ec17-493b-9997-ae84bf93f62c,nback_real2,1,2,1128,2,15,12,6,7
s.28a9de55-ec17-493b-9997-ae84bf93f62c,nback_real2,1,2,1855,5,16,10,12,6
s.28a9de55-ec17-493b-9997-ae84bf93f62c,nback_real2,1,2,1088,3,17,7,10,12
s.28a9de55-ec17-493b-9997-ae84bf93f62c,nback_real2,1,2,1176,5,18,14,7,10
s.28a9de55-ec17-493b-9997-ae84bf93f62c,nback_real2,1,2,545,2,19,5,14,7
s.28a9de55-ec17-493b-9997-ae84bf93f62c,nback_real2,1,2,1051,4,20,5,5,14
s.28a9de55-ec17-493b-9997-ae84bf93f62c,nback_real2,2,1,1128,2,21,7,5,5
s.28a9de55-ec17-493b-9997-ae84bf93f62c,nback_real2,1,2,1692,5,22,8,7,5
s.28a9de55-ec17-493b-9997-ae84bf93f62c,nback_real2,1,2,1518,4,23,11,8,7
s.28a9de55-ec17-493b-9997-ae84bf93f62c,nback_real2,1,2,1204,5,24,4,11,8
s.28a9de55-ec17-493b-9997-ae84bf93f62c,nback_real2,1,2,951,3,25,14,4,11
s.28a9de55-ec17-493b-9997-ae84bf93f62c,nback_real2,1,2,673,5,26,14,14,4
s.28a9de55-ec17-493b-9997-ae84bf93f62c,nback_real2,1,1,1187,1,27,4,14,14
s.28a9de55-ec17-493b-9997-ae84bf93f62c,nback_real2,1,2,1706,2,28,15,4,14
s.28a9de55-ec17-493b-9997-ae84bf93f62c,nback_real2,1,1,1111,1,29,14,15,4
s.28a9de55-ec17-493b-9997-ae84bf93f62c,nback_real2,2,2,1048,1,30,4,14,15
s.28a9de55-ec17-493b-9997-ae84bf93f62c,nback_real3,1,2,1023,5,1,5,0,0
s.28a9de55-ec17-493b-9997-ae84bf93f62c,nback_real3,1,2,390,4,2,8,5,0
s.28a9de55-ec17-493b-9997-ae84bf93f62c,nback_real3,1,2,761,2,3,8,8,5
s.28a9de55-ec17-493b-9997-ae84bf93f62c,nback_real3,1,2,642,4,4,14,8,8
s.28a9de55-ec17-493b-9997-ae84bf93f62c,nback_real3,1,2,1071,5,5,1,14,8
s.28a9de55-ec17-493b-9997-ae84bf93f62c,nback_real3,1,2,815,3,6,1,1,14
s.28a9de55-ec17-493b-9997-ae84bf93f62c,nback_real3,1,2,1547,3,7,1,1,1
s.28a9de55-ec17-493b-9997-ae84bf93f62c,nback_real3,3,1,2000,3,8,7,1,1
s.28a9de55-ec17-493b-9997-ae84bf93f62c,nback_real3,1,2,640,4,9,13,7,1
s.28a9de55-ec17-493b-9997-ae84bf93f62c,nback_real3,1,2,1065,4,10,12,13,7
s.28a9de55-ec17-493b-9997-ae84bf93f62c,nback_real3,1,1,1232,1,11,7,12,13
s.28a9de55-ec17-493b-9997-ae84bf93f62c,nback_real3,1,2,891,2,12,2,7,12
s.28a9de55-ec17-493b-9997-ae84bf93f62c,nback_real3,1,1,1374,1,13,12,2,7
s.28a9de55-ec17-493b-9997-ae84bf93f62c,nback_real3,1,2,711,5,14,6,12,2
s.28a9de55-ec17-493b-9997-ae84bf93f62c,nback_real3,1,2,1229,4,15,12,6,12
s.28a9de55-ec17-493b-9997-ae84bf93f62c,nback_real3,1,2,1331,3,16,7,12,6
s.28a9de55-ec17-493b-9997-ae84bf93f62c,nback_real3,1,2,846,5,17,13,7,12
s.28a9de55-ec17-493b-9997-ae84bf93f62c,nback_real3,1,2,612,4,18,9,13,7
s.28a9de55-ec17-493b-9997-ae84bf93f62c,nback_real3,1,2,817,5,19,4,9,13
s.28a9de55-ec17-493b-9997-ae84bf93f62c,nback_real3,1,2,868,2,20,5,4,9
s.28a9de55-ec17-493b-9997-ae84bf93f62c,nback_real3,1,2,1191,4,21,6,5,4
s.28a9de55-ec17-493b-9997-ae84bf93f62c,nback_real3,1,1,972,1,22,4,6,5
s.28a9de55-ec17-493b-9997-ae84bf93f62c,nback_real3,1,2,667,3,23,1,4,6
s.28a9de55-ec17-493b-9997-ae84bf93f62c,nback_real3,1,2,716,4,24,2,1,4
s.28a9de55-ec17-493b-9997-ae84bf93f62c,nback_real3,1,2,1338,5,25,12,2,1
s.28a9de55-ec17-493b-9997-ae84bf93f62c,nback_real3,1,2,761,4,26,3,12,2
s.28a9de55-ec17-493b-9997-ae84bf93f62c,nback_real3,1,2,605,2,27,10,3,12
s.28a9de55-ec17-493b-9997-ae84bf93f62c,nback_real3,1,2,574,4,28,5,10,3
s.28a9de55-ec17-493b-9997-ae84bf93f62c,nback_real3,2,1,971,3,29,2,5,10
s.28a9de55-ec17-493b-9997-ae84bf93f62c,nback_real3,1,2,646,2,30,6,2,5
s.28a9de55-ec17-493b-9997-ae84bf93f62c,nback_real4,1,2,1436,2,1,13,0,0
s.28a9de55-ec17-493b-9997-ae84bf93f62c,nback_real4,1,2,396,1,2,3,13,0
s.28a9de55-ec17-493b-9997-ae84bf93f62c,nback_real4,1,2,541,4,3,7,3,13
s.28a9de55-ec17-493b-9997-ae84bf93f62c,nback_real4,1,2,637,5,4,5,7,3
s.28a9de55-ec17-493b-9997-ae84bf93f62c,nback_real4,1,2,524,5,5,9,5,7
s.28a9de55-ec17-493b-9997-ae84bf93f62c,nback_real4,1,2,1103,4,6,15,9,5
s.28a9de55-ec17-493b-9997-ae84bf93f62c,nback_real4,1,2,1531,2,7,8,15,9
s.28a9de55-ec17-493b-9997-ae84bf93f62c,nback_real4,1,2,760,4,8,3,8,15
s.28a9de55-ec17-493b-9997-ae84bf93f62c,nback_real4,1,1,997,1,9,15,3,8
s.28a9de55-ec17-493b-9997-ae84bf93f62c,nback_real4,1,2,1138,5,10,1,15,3
s.28a9de55-ec17-493b-9997-ae84bf93f62c,nback_real4,1,2,866,3,11,9,1,15
s.28a9de55-ec17-493b-9997-ae84bf93f62c,nback_real4,2,2,1345,1,12,15,9,1
s.28a9de55-ec17-493b-9997-ae84bf93f62c,nback_real4,1,2,941,2,13,5,15,9
s.28a9de55-ec17-493b-9997-ae84bf93f62c,nback_real4,2,1,872,2,14,8,5,15
s.28a9de55-ec17-493b-9997-ae84bf93f62c,nback_real4,1,2,889,4,15,4,8,5
s.28a9de55-ec17-493b-9997-ae84bf93f62c,nback_real4,1,2,651,3,16,13,4,8
s.28a9de55-ec17-493b-9997-ae84bf93f62c,nback_real4,2,1,995,3,17,15,13,4
s.28a9de55-ec17-493b-9997-ae84bf93f62c,nback_real4,1,2,1586,4,18,13,15,13
s.28a9de55-ec17-493b-9997-ae84bf93f62c,nback_real4,1,2,757,4,19,12,13,15
s.28a9de55-ec17-493b-9997-ae84bf93f62c,nback_real4,1,2,610,5,20,3,12,13
s.28a9de55-ec17-493b-9997-ae84bf93f62c,nback_real4,1,2,1044,5,21,8,3,12
s.28a9de55-ec17-493b-9997-ae84bf93f62c,nback_real4,1,2,757,3,22,9,8,3
s.28a9de55-ec17-493b-9997-ae84bf93f62c,nback_real4,1,2,1004,4,23,11,9,8
s.28a9de55-ec17-493b-9997-ae84bf93f62c,nback_real4,1,2,703,4,24,15,11,9
s.28a9de55-ec17-493b-9997-ae84bf93f62c,nback_real4,1,1,762,1,25,9,15,11
s.28a9de55-ec17-493b-9997-ae84bf93f62c,nback_real4,1,1,1006,1,26,11,9,15
s.28a9de55-ec17-493b-9997-ae84bf93f62c,nback_real4,1,2,564,2,27,10,11,9
s.28a9de55-ec17-493b-9997-ae84bf93f62c,nback_real4,1,2,1484,5,28,8,10,11
s.28a9de55-ec17-493b-9997-ae84bf93f62c,nback_real4,1,2,631,4,29,1,8,10
s.28a9de55-ec17-493b-9997-ae84bf93f62c,nback_real4,1,2,501,3,30,14,1,8
s.28a9de55-ec17-493b-9997-ae84bf93f62c,nback_real5,1,2,1287,3,1,1,0,0
s.28a9de55-ec17-493b-9997-ae84bf93f62c,nback_real5,1,2,378,5,2,15,1,0
s.28a9de55-ec17-493b-9997-ae84bf93f62c,nback_real5,1,2,358,4,3,1,15,1
s.28a9de55-ec17-493b-9997-ae84bf93f62c,nback_real5,1,2,534,3,4,12,1,15
s.28a9de55-ec17-493b-9997-ae84bf93f62c,nback_real5,1,2,1104,4,5,12,12,1
s.28a9de55-ec17-493b-9997-ae84bf93f62c,nback_real5,1,2,610,3,6,6,12,12
s.28a9de55-ec17-493b-9997-ae84bf93f62c,nback_real5,1,2,1295,3,7,11,6,12
s.28a9de55-ec17-493b-9997-ae84bf93f62c,nback_real5,1,2,1091,2,8,15,11,6
s.28a9de55-ec17-493b-9997-ae84bf93f62c,nback_real5,1,2,522,4,9,8,15,11
s.28a9de55-ec17-493b-9997-ae84bf93f62c,nback_real5,1,1,1046,1,10,11,8,15
s.28a9de55-ec17-493b-9997-ae84bf93f62c,nback_real5,1,2,955,5,11,11,11,8
s.28a9de55-ec17-493b-9997-ae84bf93f62c,nback_real5,1,1,796,1,12,8,11,11
s.28a9de55-ec17-493b-9997-ae84bf93f62c,nback_real5,1,2,767,2,13,12,8,11
s.28a9de55-ec17-493b-9997-ae84bf93f62c,nback_real5,1,2,868,2,14,9,12,8
s.28a9de55-ec17-493b-9997-ae84bf93f62c,nback_real5,2,1,1194,3,15,15,9,12
s.28a9de55-ec17-493b-9997-ae84bf93f62c,nback_real5,1,2,808,5,16,13,15,9
s.28a9de55-ec17-493b-9997-ae84bf93f62c,nback_real5,1,2,438,2,17,5,13,15
s.28a9de55-ec17-493b-9997-ae84bf93f62c,nback_real5,1,1,748,1,18,15,5,13
s.28a9de55-ec17-493b-9997-ae84bf93f62c,nback_real5,1,2,649,5,19,12,15,5
s.28a9de55-ec17-493b-9997-ae84bf93f62c,nback_real5,1,2,1083,2,20,10,12,15
s.28a9de55-ec17-493b-9997-ae84bf93f62c,nback_real5,1,1,1031,1,21,15,10,12
s.28a9de55-ec17-493b-9997-ae84bf93f62c,nback_real5,1,2,1379,3,22,2,15,10
s.28a9de55-ec17-493b-9997-ae84bf93f62c,nback_real5,1,2,575,5,23,1,2,15
s.28a9de55-ec17-493b-9997-ae84bf93f62c,nback_real5,1,2,514,5,24,11,1,2
s.28a9de55-ec17-493b-9997-ae84bf93f62c,nback_real5,1,2,462,4,25,6,11,1
s.28a9de55-ec17-493b-9997-ae84bf93f62c,nback_real5,1,2,470,5,26,2,6,11
s.28a9de55-ec17-493b-9997-ae84bf93f62c,nback_real5,2,1,1092,2,27,1,2,6
s.28a9de55-ec17-493b-9997-ae84bf93f62c,nback_real5,1,2,978,5,28,9,1,2
s.28a9de55-ec17-493b-9997-ae84bf93f62c,nback_real5,1,2,598,2,29,3,9,1
s.28a9de55-ec17-493b-9997-ae84bf93f62c,nback_real5,1,2,766,2,30,6,3,9
s.a5202c49-157a-4b39-bd55-e2cde3a11ad0,training,3,1,2000,1,1,3,0,0
s.a5202c49-157a-4b39-bd55-e2cde3a11ad0,training,3,1,2000,3,2,3,3,0
s.a5202c49-157a-4b39-bd55-e2cde3a11ad0,training,3,1,2000,3,3,15,3,3
s.a5202c49-157a-4b39-bd55-e2cde3a11ad0,training,1,2,1488,2,4,8,15,3
s.a5202c49-157a-4b39-bd55-e2cde3a11ad0,training,1,2,1267,3,5,15,8,15
s.a5202c49-157a-4b39-bd55-e2cde3a11ad0,training,1,1,796,1,6,15,15,8
s.a5202c49-157a-4b39-bd55-e2cde3a11ad0,training,1,2,878,3,7,7,15,15
s.a5202c49-157a-4b39-bd55-e2cde3a11ad0,training,1,2,784,2,8,5,7,15
s.a5202c49-157a-4b39-bd55-e2cde3a11ad0,training,1,2,691,5,9,12,5,7
s.a5202c49-157a-4b39-bd55-e2cde3a11ad0,training,1,2,771,4,10,12,12,5
s.a5202c49-157a-4b39-bd55-e2cde3a11ad0,training,1,1,1222,1,11,5,12,12
s.a5202c49-157a-4b39-bd55-e2cde3a11ad0,training,1,2,1295,2,12,15,5,12
s.a5202c49-157a-4b39-bd55-e2cde3a11ad0,training,1,2,955,3,13,4,15,5
s.a5202c49-157a-4b39-bd55-e2cde3a11ad0,training,1,2,560,4,14,1,4,15
s.a5202c49-157a-4b39-bd55-e2cde3a11ad0,training,1,2,643,2,15,9,1,4
s.a5202c49-157a-4b39-bd55-e2cde3a11ad0,nback_real1,1,2,1003,2,1,13,9,1
s.a5202c49-157a-4b39-bd55-e2cde3a11ad0,nback_real1,1,2,387,4,2,14,13,9
s.a5202c49-157a-4b39-bd55-e2cde3a11ad0,nback_real1,1,2,364,1,3,8,14,13
s.a5202c49-157a-4b39-bd55-e2cde3a11ad0,nback_real1,1,2,587,3,4,10,8,14
s.a5202c49-157a-4b39-bd55-e2cde3a11ad0,nback_real1,2,1,1612,5,5,8,10,8
s.a5202c49-157a-4b39-bd55-e2cde3a11ad0,nback_real1,1,1,883,1,6,8,8,10
s.a5202c49-157a-4b39-bd55-e2cde3a11ad0,nback_real1,1,1,730,1,7,10,8,8
s.a5202c49-157a-4b39-bd55-e2cde3a11ad0,nback_real1,1,2,501,3,8,4,10,8
s.a5202c49-157a-4b39-bd55-e2cde3a11ad0,nback_real1,1,2,534,5,9,9,4,10
s.a5202c49-157a-4b39-bd55-e2cde3a11ad0,nback_real1,1,2,585,4,10,1,9,4
s.a5202c49-157a-4b39-bd55-e2cde3a11ad0,nback_real1,1,1,497,1,11,4,1,9
s.a5202c49-157a-4b39-bd55-e2cde3a11ad0,nback_real1,1,1,601,1,12,9,4,1
s.a5202c49-157a-4b39-bd55-e2cde3a11ad0,nback_real1,1,2,519,4,13,14,9,4
s.a5202c49-157a-4b39-bd55-e2cde3a11ad0,nback_real1,1,2,654,3,14,5,14,9
s.a5202c49-157a-4b39-bd55-e2cde3a11ad0,nback_real1,1,2,627,4,15,15,5,14
s.a5202c49-157a-4b39-bd55-e2cde3a11ad0,nback_real1,1,2,719,5,16,15,15,5
s.a5202c49-157a-4b39-bd55-e2cde3a11ad0,nback_real1,1,1,500,1,17,5,15,15
s.a5202c49-157a-4b39-bd55-e2cde3a11ad0,nback_real1,1,2,739,4,18,3,5,15
s.a5202c49-157a-4b39-bd55-e2cde3a11ad0,nback_real1,1,2,683,5,19,1,3,5
s.a5202c49-157a-4b39-bd55-e2cde3a11ad0,nback_real1,1,2,541,2,20,2,1,3
s.a5202c49-157a-4b39-bd55-e2cde3a11ad0,nback_real1,1,1,673,1,21,3,2,1
s.a5202c49-157a-4b39-bd55-e2cde3a11ad0,nback_real1,1,2,633,2,22,6,3,2
s.a5202c49-157a-4b39-bd55-e2cde3a11ad0,nback_real1,1,2,887,4,23,5,6,3
s.a5202c49-157a-4b39-bd55-e2cde3a11ad0,nback_real1,1,1,915,1,24,3,5,6
s.a5202c49-157a-4b39-bd55-e2cde3a11ad0,nback_real1,2,1,1055,2,25,3,3,5
s.a5202c49-157a-4b39-bd55-e2cde3a11ad0,nback_real1,2,2,643,1,26,5,3,3
s.a5202c49-157a-4b39-bd55-e2cde3a11ad0,nback_real1,1,2,629,4,27,10,5,3
s.a5202c49-157a-4b39-bd55-e2cde3a11ad0,nback_real1,1,2,512,3,28,2,10,5
s.a5202c49-157a-4b39-bd55-e2cde3a11ad0,nback_real1,1,1,746,1,29,5,2,10
s.a5202c49-157a-4b39-bd55-e2cde3a11ad0,nback_real1,2,2,843,1,30,10,5,2
s.a5202c49-157a-4b39-bd55-e2cde3a11ad0,nback_real2,1,2,1311,1,1,5,0,0
s.a5202c49-157a-4b39-bd55-e2cde3a11ad0,nback_real2,1,2,445,2,2,6,5,0
s.a5202c49-157a-4b39-bd55-e2cde3a11ad0,nback_real2,1,2,324,1,3,14,6,5
s.a5202c49-157a-4b39-bd55-e2cde3a11ad0,nback_real2,1,2,458,4,4,9,14,6
s.a5202c49-157a-4b39-bd55-e2cde3a11ad0,nback_real2,1,2,472,3,5,4,9,14
s.a5202c49-157a-4b39-bd55-e2cde3a11ad0,nback_real2,1,2,514,5,6,2,4,9
s.a5202c49-157a-4b39-bd55-e2cde3a11ad0,nback_real2,1,2,489,2,7,12,2,4
s.a5202c49-157a-4b39-bd55-e2cde3a11ad0,nback_real2,1,2,503,4,8,3,12,2
s.a5202c49-157a-4b39-bd55-e2cde3a11ad0,nback_real2,1,2,487,5,9,11,3,12
s.a5202c49-157a-4b39-bd55-e2cde3a11ad0,nback_real2,1,1,781,1,10,12,11,3
s.a5202c49-157a-4b39-bd55-e2cde3a11ad0,nback_real2,1,2,700,3,11,7,12,11
s.a5202c49-157a-4b39-bd55-e2cde3a11ad0,nback_real2,1,1,713,1,12,11,7,12
s.a5202c49-157a-4b39-bd55-e2cde3a11ad0,nback_real2,1,2,789,5,13,13,11,7
s.a5202c49-157a-4b39-bd55-e2cde3a11ad0,nback_real2,1,1,692,1,14,7,13,11
s.a5202c49-157a-4b39-bd55-e2cde3a11ad0,nback_real2,1,2,688,2,15,2,7,13
s.a5202c49-157a-4b39-bd55-e2cde3a11ad0,nback_real2,1,2,570,2,16,8,2,7
s.a5202c49-157a-4b39-bd55-e2cde3a11ad0,nback_real2,1,2,708,4,17,12,8,2
s.a5202c49-157a-4b39-bd55-e2cde3a11ad0,nback_real2,1,2,436,4,18,1,12,8
s.a5202c49-157a-4b39-bd55-e2cde3a11ad0,nback_real2,1,2,632,4,19,5,1,12
s.a5202c49-157a-4b39-bd55-e2cde3a11ad0,nback_real2,1,1,724,1,20,12,5,1
s.a5202c49-157a-4b39-bd55-e2cde3a11ad0,nback_real2,1,2,841,3,21,13,12,5
s.a5202c49-157a-4b39-bd55-e2cde3a11ad0,nback_real2,1,2,728,2,22,11,13,12
s.a5202c49-157a-4b39-bd55-e2cde3a11ad0,nback_real2,1,2,665,5,23,4,11,13
s.a5202c49-157a-4b39-bd55-e2cde3a11ad0,nback_real2,1,2,488,2,24,3,4,11
s.a5202c49-157a-4b39-bd55-e2cde3a11ad0,nback_real2,1,2,651,5,25,14,3,4
s.a5202c49-157a-4b39-bd55-e2cde3a11ad0,nback_real2,1,2,640,2,26,14,14,3
s.a5202c49-157a-4b39-bd55-e2cde3a11ad0,nback_real2,1,2,611,4,27,11,14,14
s.a5202c49-157a-4b39-bd55-e2cde3a11ad0,nback_real2,1,2,660,5,28,11,11,14
s.a5202c49-157a-4b39-bd55-e2cde3a11ad0,nback_real2,1,2,485,4,29,15,11,11
s.a5202c49-157a-4b39-bd55-e2cde3a11ad0,nback_real2,1,1,440,1,30,11,15,11
s.a5202c49-157a-4b39-bd55-e2cde3a11ad0,nback_real3,1,2,1203,4,1,15,0,0
s.a5202c49-157a-4b39-bd55-e2cde3a11ad0,nback_real3,1,2,370,4,2,8,15,0
s.a5202c49-157a-4b39-bd55-e2cde3a11ad0,nback_real3,1,2,335,2,3,8,8,15
s.a5202c49-157a-4b39-bd55-e2cde3a11ad0,nback_real3,1,2,573,4,4,5,8,8
s.a5202c49-157a-4b39-bd55-e2cde3a11ad0,nback_real3,1,2,549,5,5,11,5,8
s.a5202c49-157a-4b39-bd55-e2cde3a11ad0,nback_real3,1,2,469,2,6,7,11,5
s.a5202c49-157a-4b39-bd55-e2cde3a11ad0,nback_real3,1,2,494,4,7,6,7,11
s.a5202c49-157a-4b39-bd55-e2cde3a11ad0,nback_real3,2,2,727,1,8,11,6,7
s.a5202c49-157a-4b39-bd55-e2cde3a11ad0,nback_real3,1,2,1197,5,9,5,11,6
s.a5202c49-157a-4b39-bd55-e2cde3a11ad0,nback_real3,1,2,688,3,10,9,5,11
s.a5202c49-157a-4b39-bd55-e2cde3a11ad0,nback_real3,1,2,556,2,11,1,9,5
s.a5202c49-157a-4b39-bd55-e2cde3a11ad0,nback_real3,1,2,513,5,12,4,1,9
s.a5202c49-157a-4b39-bd55-e2cde3a11ad0,nback_real3,1,2,406,2,13,2,4,1
s.a5202c49-157a-4b39-bd55-e2cde3a11ad0,nback_real3,1,2,494,2,14,10,2,4
s.a5202c49-157a-4b39-bd55-e2cde3a11ad0,nback_real3,1,2,434,4,15,15,10,2
s.a5202c49-157a-4b39-bd55-e2cde3a11ad0,nback_real3,1,2,373,2,16,8,15,10
s.a5202c49-157a-4b39-bd55-e2cde3a11ad0,nback_real3,1,2,833,5,17,1,8,15
s.a5202c49-157a-4b39-bd55-e2cde3a11ad0,nback_real3,1,2,396,2,18,10,1,8
s.a5202c49-157a-4b39-bd55-e2cde3a11ad0,nback_real3,1,2,589,5,19,10,10,1
s.a5202c49-157a-4b39-bd55-e2cde3a11ad0,nback_real3,1,2,431,2,20,15,10,10
s.a5202c49-157a-4b39-bd55-e2cde3a11ad0,nback_real3,1,2,374,2,21,4,15,10
s.a5202c49-157a-4b39-bd55-e2cde3a11ad0,nback_real3,1,2,476,5,22,12,4,15
s.a5202c49-157a-4b39-bd55-e2cde3a11ad0,nback_real3,1,2,418,4,23,12,12,4
s.a5202c49-157a-4b39-bd55-e2cde3a11ad0,nback_real3,1,2,479,5,24,8,12,12
s.a5202c49-157a-4b39-bd55-e2cde3a11ad0,nback_real3,1,2,466,4,25,15,8,12
s.a5202c49-157a-4b39-bd55-e2cde3a11ad0,nback_real3,1,2,340,2,26,2,15,8
s.a5202c49-157a-4b39-bd55-e2cde3a11ad0,nback_real3,1,2,363,3,27,1,2,15
s.a5202c49-157a-4b39-bd55-e2cde3a11ad0,nback_real3,1,2,240,3,28,12,1,2
s.a5202c49-157a-4b39-bd55-e2cde3a11ad0,nback_real3,1,2,388,3,29,11,12,1
s.a5202c49-157a-4b39-bd55-e2cde3a11ad0,nback_real3,1,2,394,4,30,9,11,12
s.a5202c49-157a-4b39-bd55-e2cde3a11ad0,nback_real4,1,2,1033,3,1,11,0,0
s.a5202c49-157a-4b39-bd55-e2cde3a11ad0,nback_real4,1,2,340,3,2,2,11,0
s.a5202c49-157a-4b39-bd55-e2cde3a11ad0,nback_real4,1,2,302,3,3,3,2,11
s.a5202c49-157a-4b39-bd55-e2cde3a11ad0,nback_real4,1,2,380,3,4,13,3,2
s.a5202c49-157a-4b39-bd55-e2cde3a11ad0,nback_real4,1,2,407,4,5,7,13,3
s.a5202c49-157a-4b39-bd55-e2cde3a11ad0,nback_real4,1,2,502,5,6,7,7,13
s.a5202c49-157a-4b39-bd55-e2cde3a11ad0,nback_real4,1,2,389,5,7,10,7,7
s.a5202c49-157a-4b39-bd55-e2cde3a11ad0,nback_real4,1,2,460,4,8,14,10,7
s.a5202c49-157a-4b39-bd55-e2cde3a11ad0,nback_real4,1,1,678,1,9,7,14,10
s.a5202c49-157a-4b39-bd55-e2cde3a11ad0,nback_real4,1,1,1247,1,10,10,7,14
s.a5202c49-157a-4b39-bd55-e2cde3a11ad0,nback_real4,1,2,1215,4,11,7,10,7
s.a5202c49-157a-4b39-bd55-e2cde3a11ad0,nback_real4,1,2,502,3,12,6,7,10
s.a5202c49-157a-4b39-bd55-e2cde3a11ad0,nback_real4,1,2,428,2,13,11,6,7
s.a5202c49-157a-4b39-bd55-e2cde3a11ad0,nback_real4,2,2,603,1,14,7,11,6
s.a5202c49-157a-4b39-bd55-e2cde3a11ad0,nback_real4,1,2,556,4,15,5,7,11
s.a5202c49-157a-4b39-bd55-e2cde3a11ad0,nback_real4,1,2,468,5,16,4,5,7
s.a5202c49-157a-4b39-bd55-e2cde3a11ad0,nback_real4,1,2,355,5,17,4,4,5
s.a5202c49-157a-4b39-bd55-e2cde3a11ad0,nback_real4,1,2,500,4,18,13,4,4
s.a5202c49-157a-4b39-bd55-e2cde3a11ad0,nback_real4,1,2,435,4,19,8,13,4
s.a5202c49-157a-4b39-bd55-e2cde3a11ad0,nback_real4,1,2,386,4,20,6,8,13
s.a5202c49-157a-4b39-bd55-e2cde3a11ad0,nback_real4,1,2,326,3,21,9,6,8
s.a5202c49-157a-4b39-bd55-e2cde3a11ad0,nback_real4,1,2,402,5,22,3,9,6
s.a5202c49-157a-4b39-bd55-e2cde3a11ad0,nback_real4,1,2,320,5,23,15,3,9
s.a5202c49-157a-4b39-bd55-e2cde3a11ad0,nback_real4,2,2,304,1,24,9,15,3
s.a5202c49-157a-4b39-bd55-e2cde3a11ad0,nback_real4,1,2,433,2,25,11,9,15
s.a5202c49-157a-4b39-bd55-e2cde3a11ad0,nback_real4,1,1,491,1,26,15,11,9
s.a5202c49-157a-4b39-bd55-e2cde3a11ad0,nback_real4,1,2,576,4,27,6,15,11
s.a5202c49-157a-4b39-bd55-e2cde3a11ad0,nback_real4,1,2,687,2,28,6,6,15
s.a5202c49-157a-4b39-bd55-e2cde3a11ad0,nback_real4,1,2,586,3,29,7,6,6
s.a5202c49-157a-4b39-bd55-e2cde3a11ad0,nback_real4,2,2,385,1,30,6,7,6
s.a5202c49-157a-4b39-bd55-e2cde3a11ad0,nback_real5,1,2,910,2,1,12,0,0
s.a5202c49-157a-4b39-bd55-e2cde3a11ad0,nback_real5,1,2,418,3,2,5,12,0
s.a5202c49-157a-4b39-bd55-e2cde3a11ad0,nback_real5,1,2,298,1,3,5,5,12
s.a5202c49-157a-4b39-bd55-e2cde3a11ad0,nback_real5,1,2,396,3,4,4,5,5
s.a5202c49-157a-4b39-bd55-e2cde3a11ad0,nback_real5,1,2,481,5,5,8,4,5
s.a5202c49-157a-4b39-bd55-e2cde3a11ad0,nback_real5,1,2,255,4,6,14,8,4
s.a5202c49-157a-4b39-bd55-e2cde3a11ad0,nback_real5,2,2,242,1,7,4,14,8
s.a5202c49-157a-4b39-bd55-e2cde3a11ad0,nback_real5,1,2,586,5,8,4,4,14
s.a5202c49-157a-4b39-bd55-e2cde3a11ad0,nback_real5,1,2,419,2,9,2,4,4
s.a5202c49-157a-4b39-bd55-e2cde3a11ad0,nback_real5,1,2,311,3,10,11,2,4
s.a5202c49-157a-4b39-bd55-e2cde3a11ad0,nback_real5,1,2,40,2,11,9,11,2
s.a5202c49-157a-4b39-bd55-e2cde3a11ad0,nback_real5,2,2,594,1,12,2,9,11
s.a5202c49-157a-4b39-bd55-e2cde3a11ad0,nback_real5,1,2,425,3,13,8,2,9
s.a5202c49-157a-4b39-bd55-e2cde3a11ad0,nback_real5,1,2,699,2,14,12,8,2
s.a5202c49-157a-4b39-bd55-e2cde3a11ad0,nback_real5,1,2,528,2,15,7,12,8
s.a5202c49-157a-4b39-bd55-e2cde3a11ad0,nback_real5,1,2,425,2,16,9,7,12
s.a5202c49-157a-4b39-bd55-e2cde3a11ad0,nback_real5,2,1,577,5,17,7,9,7
s.a5202c49-157a-4b39-bd55-e2cde3a11ad0,nback_real5,1,2,433,2,18,3,7,9
s.a5202c49-157a-4b39-bd55-e2cde3a11ad0,nback_real5,1,2,378,5,19,4,3,7
s.a5202c49-157a-4b39-bd55-e2cde3a11ad0,nback_real5,2,1,511,4,20,3,4,3
s.a5202c49-157a-4b39-bd55-e2cde3a11ad0,nback_real5,1,2,343,4,21,5,3,4
s.a5202c49-157a-4b39-bd55-e2cde3a11ad0,nback_real5,1,2,368,3,22,6,5,3
s.a5202c49-157a-4b39-bd55-e2cde3a11ad0,nback_real5,1,2,141,4,23,9,6,5
s.a5202c49-157a-4b39-bd55-e2cde3a11ad0,nback_real5,1,2,467,3,24,9,9,6
s.a5202c49-157a-4b39-bd55-e2cde3a11ad0,nback_real5,2,1,632,2,25,4,9,9
s.a5202c49-157a-4b39-bd55-e2cde3a11ad0,nback_real5,2,2,446,1,26,9,4,9
s.a5202c49-157a-4b39-bd55-e2cde3a11ad0,nback_real5,1,2,473,3,27,5,9,4
s.a5202c49-157a-4b39-bd55-e2cde3a11ad0,nback_real5,1,2,303,2,28,6,5,9
s.a5202c49-157a-4b39-bd55-e2cde3a11ad0,nback_real5,1,2,246,4,29,10,6,5
s.a5202c49-157a-4b39-bd55-e2cde3a11ad0,nback_real5,1,2,825,3,30,12,10,6
s.a2f3c6ea-0467-4e0f-b094-4f22ce4f18a8,training,1,2,1049,2,1,4,0,0
s.a2f3c6ea-0467-4e0f-b094-4f22ce4f18a8,training,1,2,302,4,2,6,4,0
s.a2f3c6ea-0467-4e0f-b094-4f22ce4f18a8,training,1,2,475,2,3,3,6,4
s.a2f3c6ea-0467-4e0f-b094-4f22ce4f18a8,training,1,2,703,5,4,13,3,6
s.a2f3c6ea-0467-4e0f-b094-4f22ce4f18a8,training,2,2,579,1,5,6,13,3
s.a2f3c6ea-0467-4e0f-b094-4f22ce4f18a8,training,1,2,586,4,6,1,6,13
s.a2f3c6ea-0467-4e0f-b094-4f22ce4f18a8,training,1,2,1070,2,7,4,1,6
s.a2f3c6ea-0467-4e0f-b094-4f22ce4f18a8,training,2,1,1051,4,8,1,4,1
s.a2f3c6ea-0467-4e0f-b094-4f22ce4f18a8,training,2,1,1327,4,9,4,1,4
s.a2f3c6ea-0467-4e0f-b094-4f22ce4f18a8,training,1,2,700,2,10,9,4,1
s.a2f3c6ea-0467-4e0f-b094-4f22ce4f18a8,training,1,2,777,2,11,3,9,4
s.a2f3c6ea-0467-4e0f-b094-4f22ce4f18a8,training,1,1,943,1,12,4,3,9
s.a2f3c6ea-0467-4e0f-b094-4f22ce4f18a8,training,1,2,606,5,13,10,4,3
s.a2f3c6ea-0467-4e0f-b094-4f22ce4f18a8,training,1,2,755,5,14,11,10,4
s.a2f3c6ea-0467-4e0f-b094-4f22ce4f18a8,training,1,2,551,2,15,5,11,10
s.a2f3c6ea-0467-4e0f-b094-4f22ce4f18a8,nback_real1,1,2,1331,2,1,12,5,11
s.a2f3c6ea-0467-4e0f-b094-4f22ce4f18a8,nback_real1,1,2,550,5,2,13,12,5
s.a2f3c6ea-0467-4e0f-b094-4f22ce4f18a8,nback_real1,1,2,962,3,3,12,13,12
s.a2f3c6ea-0467-4e0f-b094-4f22ce4f18a8,nback_real1,1,2,1263,4,4,10,12,13
s.a2f3c6ea-0467-4e0f-b094-4f22ce4f18a8,nback_real1,1,2,554,3,5,6,10,12
s.a2f3c6ea-0467-4e0f-b094-4f22ce4f18a8,nback_real1,1,1,1140,1,6,12,6,10
s.a2f3c6ea-0467-4e0f-b094-4f22ce4f18a8,nback_real1,1,2,986,4,7,6,12,6
s.a2f3c6ea-0467-4e0f-b094-4f22ce4f18a8,nback_real1,2,1,1369,4,8,12,6,12
s.a2f3c6ea-0467-4e0f-b094-4f22ce4f18a8,nback_real1,1,2,642,2,9,5,12,6
s.a2f3c6ea-0467-4e0f-b094-4f22ce4f18a8,nback_real1,1,1,1577,1,10,6,5,12
s.a2f3c6ea-0467-4e0f-b094-4f22ce4f18a8,nback_real1,1,2,676,2,11,15,6,5
s.a2f3c6ea-0467-4e0f-b094-4f22ce4f18a8,nback_real1,2,1,1452,4,12,6,15,6
s.a2f3c6ea-0467-4e0f-b094-4f22ce4f18a8,nback_real1,1,2,542,4,13,8,6,15
s.a2f3c6ea-0467-4e0f-b094-4f22ce4f18a8,nback_real1,1,2,470,5,14,3,8,6
s.a2f3c6ea-0467-4e0f-b094-4f22ce4f18a8,nback_real1,1,2,1282,3,15,13,3,8
s.a2f3c6ea-0467-4e0f-b094-4f22ce4f18a8,nback_real1,2,2,811,1,16,8,13,3
s.a2f3c6ea-0467-4e0f-b094-4f22ce4f18a8,nback_real1,1,2,658,5,17,4,8,13
s.a2f3c6ea-0467-4e0f-b094-4f22ce4f18a8,nback_real1,1,2,630,3,18,1,4,8
s.a2f3c6ea-0467-4e0f-b094-4f22ce4f18a8,nback_real1,2,1,809,2,19,4,1,4
s.a2f3c6ea-0467-4e0f-b094-4f22ce4f18a8,nback_real1,1,2,472,5,20,14,4,1
s.a2f3c6ea-0467-4e0f-b094-4f22ce4f18a8,nback_real1,1,2,668,5,21,9,14,4
s.a2f3c6ea-0467-4e0f-b094-4f22ce4f18a8,nback_real1,1,2,577,2,22,15,9,14
s.a2f3c6ea-0467-4e0f-b094-4f22ce4f18a8,nback_real1,1,2,713,3,23,8,15,9
s.a2f3c6ea-0467-4e0f-b094-4f22ce4f18a8,nback_real1,1,2,790,5,24,7,8,15
s.a2f3c6ea-0467-4e0f-b094-4f22ce4f18a8,nback_real1,1,2,1083,5,25,13,7,8
s.a2f3c6ea-0467-4e0f-b094-4f22ce4f18a8,nback_real1,1,2,1658,2,26,13,13,7
s.a2f3c6ea-0467-4e0f-b094-4f22ce4f18a8,nback_real1,1,2,1239,3,27,10,13,13
s.a2f3c6ea-0467-4e0f-b094-4f22ce4f18a8,nback_real1,2,2,1272,1,28,13,10,13
s.a2f3c6ea-0467-4e0f-b094-4f22ce4f18a8,nback_real1,1,1,1960,1,29,13,13,10
s.a2f3c6ea-0467-4e0f-b094-4f22ce4f18a8,nback_real1,1,2,1494,4,30,15,13,13
s.a2f3c6ea-0467-4e0f-b094-4f22ce4f18a8,nback_real2,1,2,1218,1,1,10,0,0
s.a2f3c6ea-0467-4e0f-b094-4f22ce4f18a8,nback_real2,1,2,552,5,2,4,10,0
s.a2f3c6ea-0467-4e0f-b094-4f22ce4f18a8,nback_real2,1,2,1340,5,3,10,4,10
s.a2f3c6ea-0467-4e0f-b094-4f22ce4f18a8,nback_real2,1,2,895,5,4,12,10,4
s.a2f3c6ea-0467-4e0f-b094-4f22ce4f18a8,nback_real2,1,2,1430,5,5,6,12,10
s.a2f3c6ea-0467-4e0f-b094-4f22ce4f18a8,nback_real2,1,2,1224,2,6,7,6,12
s.a2f3c6ea-0467-4e0f-b094-4f22ce4f18a8,nback_real2,1,2,1373,5,7,11,7,6
s.a2f3c6ea-0467-4e0f-b094-4f22ce4f18a8,nback_real2,1,2,1010,5,8,14,11,7
s.a2f3c6ea-0467-4e0f-b094-4f22ce4f18a8,nback_real2,1,2,1002,3,9,14,14,11
s.a2f3c6ea-0467-4e0f-b094-4f22ce4f18a8,nback_real2,1,2,833,2,10,4,14,14
s.a2f3c6ea-0467-4e0f-b094-4f22ce4f18a8,nback_real2,1,1,1391,1,11,14,4,14
s.a2f3c6ea-0467-4e0f-b094-4f22ce4f18a8,nback_real2,1,2,1165,5,12,1,14,4
s.a2f3c6ea-0467-4e0f-b094-4f22ce4f18a8,nback_real2,1,2,1603,5,13,10,1,14
s.a2f3c6ea-0467-4e0f-b094-4f22ce4f18a8,nback_real2,1,1,1206,1,14,14,10,1
s.a2f3c6ea-0467-4e0f-b094-4f22ce4f18a8,nback_real2,1,2,1014,3,15,6,14,10
s.a2f3c6ea-0467-4e0f-b094-4f22ce4f18a8,nback_real2,1,2,540,5,16,2,6,14
s.a2f3c6ea-0467-4e0f-b094-4f22ce4f18a8,nback_real2,1,2,583,5,17,9,2,6
s.a2f3c6ea-0467-4e0f-b094-4f22ce4f18a8,nback_real2,1,2,670,3,18,15,9,2
s.a2f3c6ea-0467-4e0f-b094-4f22ce4f18a8,nback_real2,1,2,1435,2,19,7,15,9
s.a2f3c6ea-0467-4e0f-b094-4f22ce4f18a8,nback_real2,2,2,1054,1,20,9,7,15
s.a2f3c6ea-0467-4e0f-b094-4f22ce4f18a8,nback_real2,1,2,610,4,21,10,9,7
s.a2f3c6ea-0467-4e0f-b094-4f22ce4f18a8,nback_real2,1,2,1137,2,22,9,10,9
s.a2f3c6ea-0467-4e0f-b094-4f22ce4f18a8,nback_real2,1,2,798,4,23,6,9,10
s.a2f3c6ea-0467-4e0f-b094-4f22ce4f18a8,nback_real2,1,2,558,2,24,11,6,9
s.a2f3c6ea-0467-4e0f-b094-4f22ce4f18a8,nback_real2,1,1,919,1,25,9,11,6
s.a2f3c6ea-0467-4e0f-b094-4f22ce4f18a8,nback_real2,1,2,1130,2,26,2,9,11
s.a2f3c6ea-0467-4e0f-b094-4f22ce4f18a8,nback_real2,1,2,702,5,27,5,2,9
s.a2f3c6ea-0467-4e0f-b094-4f22ce4f18a8,nback_real2,1,1,1435,1,28,9,5,2
s.a2f3c6ea-0467-4e0f-b094-4f22ce4f18a8,nback_real2,1,2,550,2,29,3,9,5
s.a2f3c6ea-0467-4e0f-b094-4f22ce4f18a8,nback_real2,1,2,768,2,30,11,3,9
s.a2f3c6ea-0467-4e0f-b094-4f22ce4f18a8,nback_real3,1,2,874,4,1,9,0,0
s.a2f3c6ea-0467-4e0f-b094-4f22ce4f18a8,nback_real3,1,2,481,2,2,13,9,0
s.a2f3c6ea-0467-4e0f-b094-4f22ce4f18a8,nback_real3,1,2,911,2,3,4,13,9
s.a2f3c6ea-0467-4e0f-b094-4f22ce4f18a8,nback_real3,2,2,902,1,4,9,4,13
s.a2f3c6ea-0467-4e0f-b094-4f22ce4f18a8,nback_real3,1,2,950,2,5,12,9,4
s.a2f3c6ea-0467-4e0f-b094-4f22ce4f18a8,nback_real3,1,1,1672,1,6,4,12,9
s.a2f3c6ea-0467-4e0f-b094-4f22ce4f18a8,nback_real3,3,1,2000,1,7,9,4,12
s.a2f3c6ea-0467-4e0f-b094-4f22ce4f18a8,nback_real3,2,1,1321,3,8,8,9,4
s.a2f3c6ea-0467-4e0f-b094-4f22ce4f18a8,nback_real3,1,2,1076,4,9,14,8,9
s.a2f3c6ea-0467-4e0f-b094-4f22ce4f18a8,nback_real3,1,2,667,4,10,3,14,8
s.a2f3c6ea-0467-4e0f-b094-4f22ce4f18a8,nback_real3,1,2,898,2,11,5,3,14
s.a2f3c6ea-0467-4e0f-b094-4f22ce4f18a8,nback_real3,1,1,1478,1,12,14,5,3
s.a2f3c6ea-0467-4e0f-b094-4f22ce4f18a8,nback_real3,1,1,965,1,13,3,14,5
s.a2f3c6ea-0467-4e0f-b094-4f22ce4f18a8,nback_real3,1,2,762,3,14,8,3,14
s.a2f3c6ea-0467-4e0f-b094-4f22ce4f18a8,nback_real3,1,2,1855,4,15,11,8,3
s.a2f3c6ea-0467-4e0f-b094-4f22ce4f18a8,nback_real3,1,2,871,5,16,15,11,8
s.a2f3c6ea-0467-4e0f-b094-4f22ce4f18a8,nback_real3,1,2,935,4,17,13,15,11
s.a2f3c6ea-0467-4e0f-b094-4f22ce4f18a8,nback_real3,1,2,905,5,18,13,13,15
s.a2f3c6ea-0467-4e0f-b094-4f22ce4f18a8,nback_real3,2,2,748,1,19,15,13,13
s.a2f3c6ea-0467-4e0f-b094-4f22ce4f18a8,nback_real3,1,1,832,1,20,13,15,13
s.a2f3c6ea-0467-4e0f-b094-4f22ce4f18a8,nback_real3,1,2,1530,4,21,15,13,15
s.a2f3c6ea-0467-4e0f-b094-4f22ce4f18a8,nback_real3,1,1,1068,1,22,15,15,13
s.a2f3c6ea-0467-4e0f-b094-4f22ce4f18a8,nback_real3,1,2,820,2,23,9,15,15
s.a2f3c6ea-0467-4e0f-b094-4f22ce4f18a8,nback_real3,1,2,1442,4,24,9,9,15
s.a2f3c6ea-0467-4e0f-b094-4f22ce4f18a8,nback_real3,1,2,951,3,25,8,9,9
s.a2f3c6ea-0467-4e0f-b094-4f22ce4f18a8,nback_real3,1,2,515,4,26,6,8,9
s.a2f3c6ea-0467-4e0f-b094-4f22ce4f18a8,nback_real3,1,2,584,4,27,2,6,8
s.a2f3c6ea-0467-4e0f-b094-4f22ce4f18a8,nback_real3,1,2,682,5,28,3,2,6
s.a2f3c6ea-0467-4e0f-b094-4f22ce4f18a8,nback_real3,1,2,1140,2,29,5,3,2
s.a2f3c6ea-0467-4e0f-b094-4f22ce4f18a8,nback_real3,1,2,407,5,30,1,5,3
s.a2f3c6ea-0467-4e0f-b094-4f22ce4f18a8,nback_real4,1,2,682,2,1,10,0,0
s.a2f3c6ea-0467-4e0f-b094-4f22ce4f18a8,nback_real4,1,2,449,3,2,13,10,0
s.a2f3c6ea-0467-4e0f-b094-4f22ce4f18a8,nback_real4,1,2,474,2,3,14,13,10
s.a2f3c6ea-0467-4e0f-b094-4f22ce4f18a8,nback_real4,1,1,1270,1,4,10,14,13
s.a2f3c6ea-0467-4e0f-b094-4f22ce4f18a8,nback_real4,2,1,1551,4,5,8,10,14
s.a2f3c6ea-0467-4e0f-b094-4f22ce4f18a8,nback_real4,1,2,1064,3,6,15,8,10
s.a2f3c6ea-0467-4e0f-b094-4f22ce4f18a8,nback_real4,3,1,2000,1,7,10,15,8
s.a2f3c6ea-0467-4e0f-b094-4f22ce4f18a8,nback_real4,1,2,845,2,8,2,10,15
s.a2f3c6ea-0467-4e0f-b094-4f22ce4f18a8,nback_real4,1,2,942,2,9,11,2,10
s.a2f3c6ea-0467-4e0f-b094-4f22ce4f18a8,nback_real4,1,2,535,3,10,15,11,2
s.a2f3c6ea-0467-4e0f-b094-4f22ce4f18a8,nback_real4,2,1,1057,2,11,8,15,11
s.a2f3c6ea-0467-4e0f-b094-4f22ce4f18a8,nback_real4,1,2,404,2,12,12,8,15
s.a2f3c6ea-0467-4e0f-b094-4f22ce4f18a8,nback_real4,1,2,832,4,13,8,12,8
s.a2f3c6ea-0467-4e0f-b094-4f22ce4f18a8,nback_real4,1,2,470,4,14,2,8,12
s.a2f3c6ea-0467-4e0f-b094-4f22ce4f18a8,nback_real4,1,2,897,5,15,10,2,8
s.a2f3c6ea-0467-4e0f-b094-4f22ce4f18a8,nback_real4,1,2,826,5,16,2,10,2
s.a2f3c6ea-0467-4e0f-b094-4f22ce4f18a8,nback_real4,1,2,542,5,17,3,2,10
s.a2f3c6ea-0467-4e0f-b094-4f22ce4f18a8,nback_real4,1,2,958,4,18,14,3,2
s.a2f3c6ea-0467-4e0f-b094-4f22ce4f18a8,nback_real4,1,2,696,3,19,8,14,3
s.a2f3c6ea-0467-4e0f-b094-4f22ce4f18a8,nback_real4,1,2,838,5,20,10,8,14
s.a2f3c6ea-0467-4e0f-b094-4f22ce4f18a8,nback_real4,1,1,1084,1,21,14,10,8
s.a2f3c6ea-0467-4e0f-b094-4f22ce4f18a8,nback_real4,1,2,611,4,22,5,14,10
s.a2f3c6ea-0467-4e0f-b094-4f22ce4f18a8,nback_real4,2,2,1284,1,23,10,5,14
s.a2f3c6ea-0467-4e0f-b094-4f22ce4f18a8,nback_real4,1,2,711,5,24,7,10,5
s.a2f3c6ea-0467-4e0f-b094-4f22ce4f18a8,nback_real4,1,2,604,3,25,9,7,10
s.a2f3c6ea-0467-4e0f-b094-4f22ce4f18a8,nback_real4,1,2,380,2,26,1,9,7
s.a2f3c6ea-0467-4e0f-b094-4f22ce4f18a8,nback_real4,1,2,954,5,27,9,1,9
s.a2f3c6ea-0467-4e0f-b094-4f22ce4f18a8,nback_real4,1,2,917,2,28,7,9,1
s.a2f3c6ea-0467-4e0f-b094-4f22ce4f18a8,nback_real4,2,2,445,1,29,1,7,9
s.a2f3c6ea-0467-4e0f-b094-4f22ce4f18a8,nback_real4,1,2,495,2,30,14,1,7
s.a2f3c6ea-0467-4e0f-b094-4f22ce4f18a8,nback_real5,1,2,712,2,1,1,0,0
s.a2f3c6ea-0467-4e0f-b094-4f22ce4f18a8,nback_real5,1,2,354,5,2,11,1,0
s.a2f3c6ea-0467-4e0f-b094-4f22ce4f18a8,nback_real5,1,2,483,1,3,10,11,1
s.a2f3c6ea-0467-4e0f-b094-4f22ce4f18a8,nback_real5,1,2,628,3,4,14,10,11
s.a2f3c6ea-0467-4e0f-b094-4f22ce4f18a8,nback_real5,1,2,853,5,5,8,14,10
s.a2f3c6ea-0467-4e0f-b094-4f22ce4f18a8,nback_real5,1,2,645,2,6,2,8,14
s.a2f3c6ea-0467-4e0f-b094-4f22ce4f18a8,nback_real5,1,2,499,4,7,9,2,8
s.a2f3c6ea-0467-4e0f-b094-4f22ce4f18a8,nback_real5,1,2,420,3,8,12,9,2
s.a2f3c6ea-0467-4e0f-b094-4f22ce4f18a8,nback_real5,2,2,1084,1,9,2,12,9
s.a2f3c6ea-0467-4e0f-b094-4f22ce4f18a8,nback_real5,1,2,591,3,10,1,2,12
s.a2f3c6ea-0467-4e0f-b094-4f22ce4f18a8,nback_real5,1,2,516,4,11,7,1,2
s.a2f3c6ea-0467-4e0f-b094-4f22ce4f18a8,nback_real5,1,1,1167,1,12,2,7,1
s.a2f3c6ea-0467-4e0f-b094-4f22ce4f18a8,nback_real5,1,2,733,4,13,14,2,7
s.a2f3c6ea-0467-4e0f-b094-4f22ce4f18a8,nback_real5,1,2,915,3,14,12,14,2
s.a2f3c6ea-0467-4e0f-b094-4f22ce4f18a8,nback_real5,1,2,577,4,15,5,12,14
s.a2f3c6ea-0467-4e0f-b094-4f22ce4f18a8,nback_real5,1,2,565,4,16,15,5,12
s.a2f3c6ea-0467-4e0f-b094-4f22ce4f18a8,nback_real5,1,2,637,2,17,13,15,5
s.a2f3c6ea-0467-4e0f-b094-4f22ce4f18a8,nback_real5,1,2,512,3,18,11,13,15
s.a2f3c6ea-0467-4e0f-b094-4f22ce4f18a8,nback_real5,1,2,495,2,19,3,11,13
s.a2f3c6ea-0467-4e0f-b094-4f22ce4f18a8,nback_real5,1,2,700,5,20,12,3,11
s.a2f3c6ea-0467-4e0f-b094-4f22ce4f18a8,nback_real5,2,2,831,1,21,11,12,3
s.a2f3c6ea-0467-4e0f-b094-4f22ce4f18a8,nback_real5,1,2,1019,4,22,11,11,12
s.a2f3c6ea-0467-4e0f-b094-4f22ce4f18a8,nback_real5,1,1,810,1,23,12,11,11
s.a2f3c6ea-0467-4e0f-b094-4f22ce4f18a8,nback_real5,1,2,481,4,24,13,12,11
s.a2f3c6ea-0467-4e0f-b094-4f22ce4f18a8,nback_real5,1,2,937,3,25,9,13,12
s.a2f3c6ea-0467-4e0f-b094-4f22ce4f18a8,nback_real5,1,2,498,5,26,2,9,13
s.a2f3c6ea-0467-4e0f-b094-4f22ce4f18a8,nback_real5,1,1,825,1,27,13,2,9
s.a2f3c6ea-0467-4e0f-b094-4f22ce4f18a8,nback_real5,1,2,701,5,28,14,13,2
s.a2f3c6ea-0467-4e0f-b094-4f22ce4f18a8,nback_real5,2,1,1006,3,29,12,14,13
s.a2f3c6ea-0467-4e0f-b094-4f22ce4f18a8,nback_real5,1,2,696,5,30,11,12,14
s.017b5c87-45f4-4f33-9fad-258060005283,training,3,1,2000,3,1,7,0,0
s.017b5c87-45f4-4f33-9fad-258060005283,training,3,1,2000,2,2,10,7,0
s.017b5c87-45f4-4f33-9fad-258060005283,training,3,1,2000,5,3,3,10,7
s.017b5c87-45f4-4f33-9fad-258060005283,training,3,1,2000,5,4,4,3,10
s.017b5c87-45f4-4f33-9fad-258060005283,training,3,1,2000,1,5,10,4,3
s.017b5c87-45f4-4f33-9fad-258060005283,training,3,1,2000,4,6,2,10,4
s.017b5c87-45f4-4f33-9fad-258060005283,training,3,1,2000,4,7,9,2,10
s.017b5c87-45f4-4f33-9fad-258060005283,training,3,1,2000,1,8,10,9,2
s.017b5c87-45f4-4f33-9fad-258060005283,training,3,1,2000,4,9,13,10,9
s.017b5c87-45f4-4f33-9fad-258060005283,training,3,1,2000,2,10,15,13,10
s.017b5c87-45f4-4f33-9fad-258060005283,training,3,1,2000,5,11,3,15,13
s.017b5c87-45f4-4f33-9fad-258060005283,training,3,1,2000,5,12,12,3,15
s.017b5c87-45f4-4f33-9fad-258060005283,training,3,1,2000,2,13,13,12,3
s.017b5c87-45f4-4f33-9fad-258060005283,training,3,1,2000,5,14,9,13,12
s.017b5c87-45f4-4f33-9fad-258060005283,training,3,1,2000,5,15,2,9,13
s.017b5c87-45f4-4f33-9fad-258060005283,nback_real1,1,2,1120,3,1,15,2,9
s.017b5c87-45f4-4f33-9fad-258060005283,nback_real1,1,2,786,1,2,2,15,2
s.017b5c87-45f4-4f33-9fad-258060005283,nback_real1,1,2,823,2,3,14,2,15
s.017b5c87-45f4-4f33-9fad-258060005283,nback_real1,1,2,865,3,4,2,14,2
s.017b5c87-45f4-4f33-9fad-258060005283,nback_real1,1,2,641,2,5,15,2,14
s.017b5c87-45f4-4f33-9fad-258060005283,nback_real1,1,2,671,2,6,10,15,2
s.017b5c87-45f4-4f33-9fad-258060005283,nback_real1,1,2,1020,2,7,8,10,15
s.017b5c87-45f4-4f33-9fad-258060005283,nback_real1,2,1,983,5,8,12,8,10
s.017b5c87-45f4-4f33-9fad-258060005283,nback_real1,2,1,901,5,9,7,12,8
s.017b5c87-45f4-4f33-9fad-258060005283,nback_real1,2,1,1248,5,10,7,7,12
s.017b5c87-45f4-4f33-9fad-258060005283,nback_real1,2,1,672,2,11,10,7,7
s.017b5c87-45f4-4f33-9fad-258060005283,nback_real1,2,1,591,3,12,10,10,7
s.017b5c87-45f4-4f33-9fad-258060005283,nback_real1,1,1,1049,1,13,7,10,10
s.017b5c87-45f4-4f33-9fad-258060005283,nback_real1,2,1,1642,2,14,4,7,10
s.017b5c87-45f4-4f33-9fad-258060005283,nback_real1,1,2,1691,2,15,12,4,7
s.017b5c87-45f4-4f33-9fad-258060005283,nback_real1,2,1,889,2,16,13,12,4
s.017b5c87-45f4-4f33-9fad-258060005283,nback_real1,2,2,729,1,17,4,13,12
s.017b5c87-45f4-4f33-9fad-258060005283,nback_real1,2,1,658,5,18,11,4,13
s.017b5c87-45f4-4f33-9fad-258060005283,nback_real1,1,2,1162,4,19,9,11,4
s.017b5c87-45f4-4f33-9fad-258060005283,nback_real1,2,1,908,2,20,15,9,11
s.017b5c87-45f4-4f33-9fad-258060005283,nback_real1,3,1,2000,3,21,4,15,9
s.017b5c87-45f4-4f33-9fad-258060005283,nback_real1,2,1,614,4,22,3,4,15
s.017b5c87-45f4-4f33-9fad-258060005283,nback_real1,2,1,979,4,23,5,3,4
s.017b5c87-45f4-4f33-9fad-258060005283,nback_real1,2,1,1643,4,24,5,5,3
s.017b5c87-45f4-4f33-9fad-258060005283,nback_real1,1,2,1375,4,25,15,5,5
s.017b5c87-45f4-4f33-9fad-258060005283,nback_real1,1,2,773,5,26,2,15,5
s.017b5c87-45f4-4f33-9fad-258060005283,nback_real1,1,2,571,5,27,7,2,15
s.017b5c87-45f4-4f33-9fad-258060005283,nback_real1,2,1,691,4,28,8,7,2
s.017b5c87-45f4-4f33-9fad-258060005283,nback_real1,1,2,595,3,29,6,8,7
s.017b5c87-45f4-4f33-9fad-258060005283,nback_real1,2,1,608,5,30,2,6,8
s.017b5c87-45f4-4f33-9fad-258060005283,nback_real2,3,1,2000,5,1,2,0,0
s.017b5c87-45f4-4f33-9fad-258060005283,nback_real2,3,1,2000,5,2,15,2,0
s.017b5c87-45f4-4f33-9fad-258060005283,nback_real2,1,2,1427,4,3,15,15,2
s.017b5c87-45f4-4f33-9fad-258060005283,nback_real2,2,1,638,3,4,10,15,15
s.017b5c87-45f4-4f33-9fad-258060005283,nback_real2,2,1,917,5,5,14,10,15
s.017b5c87-45f4-4f33-9fad-258060005283,nback_real2,2,2,652,1,6,15,14,10
s.017b5c87-45f4-4f33-9fad-258060005283,nback_real2,1,2,1024,5,7,7,15,14
s.017b5c87-45f4-4f33-9fad-258060005283,nback_real2,2,1,921,5,8,10,7,15
s.017b5c87-45f4-4f33-9fad-258060005283,nback_real2,2,1,903,5,9,13,10,7
s.017b5c87-45f4-4f33-9fad-258060005283,nback_real2,1,2,1360,4,10,3,13,10
s.017b5c87-45f4-4f33-9fad-258060005283,nback_real2,1,1,833,1,11,10,3,13
s.017b5c87-45f4-4f33-9fad-258060005283,nback_real2,1,2,1198,4,12,5,10,3
s.017b5c87-45f4-4f33-9fad-258060005283,nback_real2,2,1,1172,5,13,5,5,10
s.017b5c87-45f4-4f33-9fad-258060005283,nback_real2,1,2,766,2,14,5,5,5
s.017b5c87-45f4-4f33-9fad-258060005283,nback_real2,1,2,900,4,15,3,5,5
s.017b5c87-45f4-4f33-9fad-258060005283,nback_real2,1,2,891,3,16,7,3,5
s.017b5c87-45f4-4f33-9fad-258060005283,nback_real2,1,2,835,3,17,14,7,3
s.017b5c87-45f4-4f33-9fad-258060005283,nback_real2,2,2,679,1,18,3,14,7
s.017b5c87-45f4-4f33-9fad-258060005283,nback_real2,1,2,637,3,19,4,3,14
s.017b5c87-45f4-4f33-9fad-258060005283,nback_real2,1,2,558,4,20,3,4,3
s.017b5c87-45f4-4f33-9fad-258060005283,nback_real2,1,2,680,4,21,6,3,4
s.017b5c87-45f4-4f33-9fad-258060005283,nback_real2,2,2,599,1,22,4,6,3
s.017b5c87-45f4-4f33-9fad-258060005283,nback_real2,2,1,1057,5,23,1,4,6
s.017b5c87-45f4-4f33-9fad-258060005283,nback_real2,1,2,762,4,24,2,1,4
s.017b5c87-45f4-4f33-9fad-258060005283,nback_real2,2,1,980,3,25,9,2,1
s.017b5c87-45f4-4f33-9fad-258060005283,nback_real2,1,1,1194,1,26,1,9,2
s.017b5c87-45f4-4f33-9fad-258060005283,nback_real2,2,1,1533,2,27,5,1,9
s.017b5c87-45f4-4f33-9fad-258060005283,nback_real2,1,2,704,5,28,7,5,1
s.017b5c87-45f4-4f33-9fad-258060005283,nback_real2,1,2,678,5,29,2,7,5
s.017b5c87-45f4-4f33-9fad-258060005283,nback_real2,1,2,593,2,30,14,2,7
s.017b5c87-45f4-4f33-9fad-258060005283,nback_real3,3,1,2000,3,1,5,0,0
s.017b5c87-45f4-4f33-9fad-258060005283,nback_real3,2,1,980,4,2,10,5,0
s.017b5c87-45f4-4f33-9fad-258060005283,nback_real3,1,2,530,4,3,1,10,5
s.017b5c87-45f4-4f33-9fad-258060005283,nback_real3,2,2,412,1,4,5,1,10
s.017b5c87-45f4-4f33-9fad-258060005283,nback_real3,1,2,61,5,5,1,5,1
s.017b5c87-45f4-4f33-9fad-258060005283,nback_real3,2,2,451,1,6,1,1,5
s.017b5c87-45f4-4f33-9fad-258060005283,nback_real3,1,2,334,3,7,13,1,1
s.017b5c87-45f4-4f33-9fad-258060005283,nback_real3,1,2,408,2,8,15,13,1
s.017b5c87-45f4-4f33-9fad-258060005283,nback_real3,2,1,555,4,9,6,15,13
s.017b5c87-45f4-4f33-9fad-258060005283,nback_real3,1,1,437,1,10,13,6,15
s.017b5c87-45f4-4f33-9fad-258060005283,nback_real3,1,2,1156,3,11,10,13,6
s.017b5c87-45f4-4f33-9fad-258060005283,nback_real3,1,2,882,2,12,5,10,13
s.017b5c87-45f4-4f33-9fad-258060005283,nback_real3,1,2,950,5,13,9,5,10
s.017b5c87-45f4-4f33-9fad-258060005283,nback_real3,1,2,824,4,14,1,9,5
s.017b5c87-45f4-4f33-9fad-258060005283,nback_real3,1,2,557,3,15,3,1,9
s.017b5c87-45f4-4f33-9fad-258060005283,nback_real3,1,2,543,3,16,12,3,1
s.017b5c87-45f4-4f33-9fad-258060005283,nback_real3,1,2,472,2,17,15,12,3
s.017b5c87-45f4-4f33-9fad-258060005283,nback_real3,1,2,962,2,18,5,15,12
s.017b5c87-45f4-4f33-9fad-258060005283,nback_real3,2,2,1135,1,19,12,5,15
s.017b5c87-45f4-4f33-9fad-258060005283,nback_real3,2,1,614,4,20,13,12,5
s.017b5c87-45f4-4f33-9fad-258060005283,nback_real3,2,1,579,4,21,8,13,12
s.017b5c87-45f4-4f33-9fad-258060005283,nback_real3,2,1,394,3,22,2,8,13
s.017b5c87-45f4-4f33-9fad-258060005283,nback_real3,1,1,491,1,23,13,2,8
s.017b5c87-45f4-4f33-9fad-258060005283,nback_real3,1,2,409,4,24,7,13,2
s.017b5c87-45f4-4f33-9fad-258060005283,nback_real3,2,2,529,1,25,2,7,13
s.017b5c87-45f4-4f33-9fad-258060005283,nback_real3,1,2,587,5,26,7,2,7
s.017b5c87-45f4-4f33-9fad-258060005283,nback_real3,2,2,653,1,27,7,7,2
s.017b5c87-45f4-4f33-9fad-258060005283,nback_real3,1,2,1737,4,28,5,7,7
s.017b5c87-45f4-4f33-9fad-258060005283,nback_real3,2,1,847,2,29,5,5,7
s.017b5c87-45f4-4f33-9fad-258060005283,nback_real3,1,2,923,2,30,11,5,5
s.017b5c87-45f4-4f33-9fad-258060005283,nback_real4,1,2,626,2,1,6,0,0
s.017b5c87-45f4-4f33-9fad-258060005283,nback_real4,1,2,176,2,2,3,6,0
s.017b5c87-45f4-4f33-9fad-258060005283,nback_real4,1,2,126,2,3,3,3,6
s.017b5c87-45f4-4f33-9fad-258060005283,nback_real4,1,2,261,4,4,5,3,3
s.017b5c87-45f4-4f33-9fad-258060005283,nback_real4,2,2,285,1,5,3,5,3
s.017b5c87-45f4-4f33-9fad-258060005283,nback_real4,1,2,277,4,6,5,3,5
s.017b5c87-45f4-4f33-9fad-258060005283,nback_real4,2,2,207,1,7,5,5,3
s.017b5c87-45f4-4f33-9fad-258060005283,nback_real4,1,2,107,2,8,2,5,5
s.017b5c87-45f4-4f33-9fad-258060005283,nback_real4,1,2,370,4,9,1,2,5
s.017b5c87-45f4-4f33-9fad-258060005283,nback_real4,1,2,252,4,10,1,1,2
s.017b5c87-45f4-4f33-9fad-258060005283,nback_real4,2,2,244,1,11,2,1,1
s.017b5c87-45f4-4f33-9fad-258060005283,nback_real4,1,2,243,4,12,11,2,1
s.017b5c87-45f4-4f33-9fad-258060005283,nback_real4,2,1,306,4,13,2,11,2
s.017b5c87-45f4-4f33-9fad-258060005283,nback_real4,2,1,459,3,14,15,2,11
s.017b5c87-45f4-4f33-9fad-258060005283,nback_real4,1,2,370,2,15,5,15,2
s.017b5c87-45f4-4f33-9fad-258060005283,nback_real4,2,1,399,2,16,7,5,15
s.017b5c87-45f4-4f33-9fad-258060005283,nback_real4,1,2,448,5,17,10,7,5
s.017b5c87-45f4-4f33-9fad-258060005283,nback_real4,2,1,467,4,18,8,10,7
s.017b5c87-45f4-4f33-9fad-258060005283,nback_real4,1,2,261,3,19,4,8,10
s.017b5c87-45f4-4f33-9fad-258060005283,nback_real4,1,2,24,2,20,4,4,8
s.017b5c87-45f4-4f33-9fad-258060005283,nback_real4,1,2,472,5,21,6,4,4
s.017b5c87-45f4-4f33-9fad-258060005283,nback_real4,2,1,370,2,22,10,6,4
s.017b5c87-45f4-4f33-9fad-258060005283,nback_real4,1,1,325,1,23,4,10,6
s.017b5c87-45f4-4f33-9fad-258060005283,nback_real4,2,1,397,3,24,14,4,10
s.017b5c87-45f4-4f33-9fad-258060005283,nback_real4,1,2,387,4,25,5,14,4
s.017b5c87-45f4-4f33-9fad-258060005283,nback_real4,2,2,256,1,26,4,5,14
s.017b5c87-45f4-4f33-9fad-258060005283,nback_real4,1,2,585,4,27,15,4,5
s.017b5c87-45f4-4f33-9fad-258060005283,nback_real4,1,2,855,4,28,9,15,4
s.017b5c87-45f4-4f33-9fad-258060005283,nback_real4,2,1,743,2,29,5,9,15
s.017b5c87-45f4-4f33-9fad-258060005283,nback_real4,1,2,1602,4,30,7,5,9
s.017b5c87-45f4-4f33-9fad-258060005283,nback_real5,3,1,2000,5,1,6,0,0
s.017b5c87-45f4-4f33-9fad-258060005283,nback_real5,3,1,2000,2,2,3,6,0
s.017b5c87-45f4-4f33-9fad-258060005283,nback_real5,1,2,399,1,3,6,3,6
s.017b5c87-45f4-4f33-9fad-258060005283,nback_real5,1,2,200,4,4,12,6,3
s.017b5c87-45f4-4f33-9fad-258060005283,nback_real5,1,2,225,5,5,1,12,6
s.017b5c87-45f4-4f33-9fad-258060005283,nback_real5,2,2,410,1,6,6,1,12
s.017b5c87-45f4-4f33-9fad-258060005283,nback_real5,1,2,227,3,7,15,6,1
s.017b5c87-45f4-4f33-9fad-258060005283,nback_real5,2,1,62,3,8,8,15,6
s.017b5c87-45f4-4f33-9fad-258060005283,nback_real5,2,1,234,2,9,8,8,15
s.017b5c87-45f4-4f33-9fad-258060005283,nback_real5,1,2,287,2,10,3,8,8
s.017b5c87-45f4-4f33-9fad-258060005283,nback_real5,2,1,102,2,11,11,3,8
s.017b5c87-45f4-4f33-9fad-258060005283,nback_real5,1,1,152,1,12,8,11,3
s.017b5c87-45f4-4f33-9fad-258060005283,nback_real5,1,1,103,1,13,3,8,11
s.017b5c87-45f4-4f33-9fad-258060005283,nback_real5,1,2,93,3,14,3,3,8
s.017b5c87-45f4-4f33-9fad-258060005283,nback_real5,2,1,91,5,15,14,3,3
s.017b5c87-45f4-4f33-9fad-258060005283,nback_real5,2,1,551,2,16,11,14,3
s.017b5c87-45f4-4f33-9fad-258060005283,nback_real5,2,1,392,5,17,12,11,14
s.017b5c87-45f4-4f33-9fad-258060005283,nback_real5,1,2,501,2,18,5,12,11
s.017b5c87-45f4-4f33-9fad-258060005283,nback_real5,2,1,215,2,19,8,5,12
s.017b5c87-45f4-4f33-9fad-258060005283,nback_real5,2,1,324,4,20,5,8,5
s.017b5c87-45f4-4f33-9fad-258060005283,nback_real5,2,1,338,5,21,12,5,8
s.017b5c87-45f4-4f33-9fad-258060005283,nback_real5,2,1,420,5,22,12,12,5
s.017b5c87-45f4-4f33-9fad-258060005283,nback_real5,1,2,146,3,23,1,12,12
s.017b5c87-45f4-4f33-9fad-258060005283,nback_real5,1,1,352,1,24,12,1,12
s.017b5c87-45f4-4f33-9fad-258060005283,nback_real5,1,1,203,1,25,12,12,1
s.017b5c87-45f4-4f33-9fad-258060005283,nback_real5,2,1,289,4,26,15,12,12
s.017b5c87-45f4-4f33-9fad-258060005283,nback_real5,2,1,258,2,27,1,15,12
s.017b5c87-45f4-4f33-9fad-258060005283,nback_real5,1,2,196,5,28,11,1,15
s.017b5c87-45f4-4f33-9fad-258060005283,nback_real5,2,1,34,5,29,3,11,1
s.017b5c87-45f4-4f33-9fad-258060005283,nback_real5,1,2,91,5,30,11,3,11
s.9c8f2aff-8a53-4043-a99d-8f0ac8cbe47c,training,1,2,1839,5,1,9,0,0
s.9c8f2aff-8a53-4043-a99d-8f0ac8cbe47c,training,2,1,931,3,2,3,9,0
s.9c8f2aff-8a53-4043-a99d-8f0ac8cbe47c,training,1,2,1621,1,3,9,3,9
s.9c8f2aff-8a53-4043-a99d-8f0ac8cbe47c,training,2,1,666,4,4,6,9,3
s.9c8f2aff-8a53-4043-a99d-8f0ac8cbe47c,training,2,1,441,5,5,5,6,9
s.9c8f2aff-8a53-4043-a99d-8f0ac8cbe47c,training,1,2,381,5,6,10,5,6
s.9c8f2aff-8a53-4043-a99d-8f0ac8cbe47c,training,1,2,614,3,7,5,10,5
s.9c8f2aff-8a53-4043-a99d-8f0ac8cbe47c,training,1,2,49,2,8,6,5,10
s.9c8f2aff-8a53-4043-a99d-8f0ac8cbe47c,training,1,2,348,5,9,2,6,5
s.9c8f2aff-8a53-4043-a99d-8f0ac8cbe47c,training,1,2,626,4,10,10,2,6
s.9c8f2aff-8a53-4043-a99d-8f0ac8cbe47c,training,3,1,2000,5,11,5,10,2
s.9c8f2aff-8a53-4043-a99d-8f0ac8cbe47c,training,1,1,731,1,12,2,5,10
s.9c8f2aff-8a53-4043-a99d-8f0ac8cbe47c,training,1,2,716,3,13,13,2,5
s.9c8f2aff-8a53-4043-a99d-8f0ac8cbe47c,training,2,2,421,1,14,5,13,2
s.9c8f2aff-8a53-4043-a99d-8f0ac8cbe47c,training,2,1,802,3,15,5,5,13
s.9c8f2aff-8a53-4043-a99d-8f0ac8cbe47c,nback_real1,1,2,1178,4,1,3,5,5
s.9c8f2aff-8a53-4043-a99d-8f0ac8cbe47c,nback_real1,1,2,526,2,2,15,3,5
s.9c8f2aff-8a53-4043-a99d-8f0ac8cbe47c,nback_real1,1,2,427,5,3,13,15,3
s.9c8f2aff-8a53-4043-a99d-8f0ac8cbe47c,nback_real1,2,1,467,2,4,9,13,15
s.9c8f2aff-8a53-4043-a99d-8f0ac8cbe47c,nback_real1,1,2,331,3,5,12,9,13
s.9c8f2aff-8a53-4043-a99d-8f0ac8cbe47c,nback_real1,1,2,317,5,6,8,12,9
s.9c8f2aff-8a53-4043-a99d-8f0ac8cbe47c,nback_real1,1,2,292,2,7,13,8,12
s.9c8f2aff-8a53-4043-a99d-8f0ac8cbe47c,nback_real1,1,2,286,5,8,2,13,8
s.9c8f2aff-8a53-4043-a99d-8f0ac8cbe47c,nback_real1,1,2,290,5,9,2,2,13
s.9c8f2aff-8a53-4043-a99d-8f0ac8cbe47c,nback_real1,1,2,290,4,10,11,2,2
s.9c8f2aff-8a53-4043-a99d-8f0ac8cbe47c,nback_real1,1,2,330,3,11,13,11,2
s.9c8f2aff-8a53-4043-a99d-8f0ac8cbe47c,nback_real1,1,2,390,4,12,11,13,11
s.9c8f2aff-8a53-4043-a99d-8f0ac8cbe47c,nback_real1,1,2,119,5,13,2,11,13
s.9c8f2aff-8a53-4043-a99d-8f0ac8cbe47c,nback_real1,1,2,6,2,14,11,2,11
s.9c8f2aff-8a53-4043-a99d-8f0ac8cbe47c,nback_real1,1,2,372,3,15,14,11,2
s.9c8f2aff-8a53-4043-a99d-8f0ac8cbe47c,nback_real1,1,2,289,2,16,7,14,11
s.9c8f2aff-8a53-4043-a99d-8f0ac8cbe47c,nback_real1,1,2,428,5,17,1,7,14
s.9c8f2aff-8a53-4043-a99d-8f0ac8cbe47c,nback_real1,2,2,196,1,18,14,1,7
s.9c8f2aff-8a53-4043-a99d-8f0ac8cbe47c,nback_real1,1,2,537,4,19,2,14,1
s.9c8f2aff-8a53-4043-a99d-8f0ac8cbe47c,nback_real1,3,1,2000,2,20,15,2,14
s.9c8f2aff-8a53-4043-a99d-8f0ac8cbe47c,nback_real1,2,1,771,5,21,5,15,2
s.9c8f2aff-8a53-4043-a99d-8f0ac8cbe47c,nback_real1,2,2,383,1,22,2,5,15
s.9c8f2aff-8a53-4043-a99d-8f0ac8cbe47c,nback_real1,2,1,567,2,23,8,2,5
s.9c8f2aff-8a53-4043-a99d-8f0ac8cbe47c,nback_real1,1,2,351,3,24,7,8,2
s.9c8f2aff-8a53-4043-a99d-8f0ac8cbe47c,nback_real1,1,2,346,5,25,7,7,8
s.9c8f2aff-8a53-4043-a99d-8f0ac8cbe47c,nback_real1,1,2,348,4,26,9,7,7
s.9c8f2aff-8a53-4043-a99d-8f0ac8cbe47c,nback_real1,1,2,477,2,27,8,9,7
s.9c8f2aff-8a53-4043-a99d-8f0ac8cbe47c,nback_real1,1,2,335,2,28,2,8,9
s.9c8f2aff-8a53-4043-a99d-8f0ac8cbe47c,nback_real1,2,2,322,1,29,9,2,8
s.9c8f2aff-8a53-4043-a99d-8f0ac8cbe47c,nback_real1,2,1,335,4,30,12,9,2
s.9c8f2aff-8a53-4043-a99d-8f0ac8cbe47c,nback_real2,1,2,1438,1,1,4,0,0
s.9c8f2aff-8a53-4043-a99d-8f0ac8cbe47c,nback_real2,1,2,416,4,2,12,4,0
s.9c8f2aff-8a53-4043-a99d-8f0ac8cbe47c,nback_real2,1,2,613,1,3,2,12,4
s.9c8f2aff-8a53-4043-a99d-8f0ac8cbe47c,nback_real2,2,2,391,1,4,4,2,12
s.9c8f2aff-8a53-4043-a99d-8f0ac8cbe47c,nback_real2,2,1,512,3,5,13,4,2
s.9c8f2aff-8a53-4043-a99d-8f0ac8cbe47c,nback_real2,1,2,500,5,6,3,13,4
s.9c8f2aff-8a53-4043-a99d-8f0ac8cbe47c,nback_real2,2,2,411,1,7,4,3,13
s.9c8f2aff-8a53-4043-a99d-8f0ac8cbe47c,nback_real2,1,2,489,4,8,3,4,3
s.9c8f2aff-8a53-4043-a99d-8f0ac8cbe47c,nback_real2,2,1,571,2,9,14,3,4
s.9c8f2aff-8a53-4043-a99d-8f0ac8cbe47c,nback_real2,1,2,370,2,10,3,14,3
s.9c8f2aff-8a53-4043-a99d-8f0ac8cbe47c,nback_real2,2,2,596,1,11,3,3,14
s.9c8f2aff-8a53-4043-a99d-8f0ac8cbe47c,nback_real2,1,1,788,1,12,14,3,3
s.9c8f2aff-8a53-4043-a99d-8f0ac8cbe47c,nback_real2,1,2,1697,5,13,5,14,3
s.9c8f2aff-8a53-4043-a99d-8f0ac8cbe47c,nback_real2,2,1,568,5,14,14,5,14
s.9c8f2aff-8a53-4043-a99d-8f0ac8cbe47c,nback_real2,1,2,544,5,15,12,14,5
s.9c8f2aff-8a53-4043-a99d-8f0ac8cbe47c,nback_real2,2,1,1212,2,16,6,12,14
s.9c8f2aff-8a53-4043-a99d-8f0ac8cbe47c,nback_real2,3,1,2000,2,17,13,6,12
s.9c8f2aff-8a53-4043-a99d-8f0ac8cbe47c,nback_real2,1,2,1139,3,18,1,13,6
s.9c8f2aff-8a53-4043-a99d-8f0ac8cbe47c,nback_real2,2,2,360,1,19,6,1,13
s.9c8f2aff-8a53-4043-a99d-8f0ac8cbe47c,nback_real2,2,1,452,4,20,1,6,1
s.9c8f2aff-8a53-4043-a99d-8f0ac8cbe47c,nback_real2,1,2,1573,5,21,9,1,6
s.9c8f2aff-8a53-4043-a99d-8f0ac8cbe47c,nback_real2,3,1,2000,1,22,6,9,1
s.9c8f2aff-8a53-4043-a99d-8f0ac8cbe47c,nback_real2,1,2,1468,5,23,14,6,9
s.9c8f2aff-8a53-4043-a99d-8f0ac8cbe47c,nback_real2,2,1,1403,3,24,12,14,6
s.9c8f2aff-8a53-4043-a99d-8f0ac8cbe47c,nback_real2,1,2,404,5,25,1,12,14
s.9c8f2aff-8a53-4043-a99d-8f0ac8cbe47c,nback_real2,1,2,366,3,26,5,1,12
s.9c8f2aff-8a53-4043-a99d-8f0ac8cbe47c,nback_real2,2,2,501,1,27,12,5,1
s.9c8f2aff-8a53-4043-a99d-8f0ac8cbe47c,nback_real2,2,1,431,4,28,14,12,5
s.9c8f2aff-8a53-4043-a99d-8f0ac8cbe47c,nback_real2,2,2,387,1,29,5,14,12
s.9c8f2aff-8a53-4043-a99d-8f0ac8cbe47c,nback_real2,1,2,740,3,30,11,5,14
s.9c8f2aff-8a53-4043-a99d-8f0ac8cbe47c,nback_real3,1,2,1145,2,1,3,0,0
s.9c8f2aff-8a53-4043-a99d-8f0ac8cbe47c,nback_real3,1,2,413,3,2,12,3,0
s.9c8f2aff-8a53-4043-a99d-8f0ac8cbe47c,nback_real3,2,1,415,3,3,5,12,3
s.9c8f2aff-8a53-4043-a99d-8f0ac8cbe47c,nback_real3,1,2,468,2,4,1,5,12
s.9c8f2aff-8a53-4043-a99d-8f0ac8cbe47c,nback_real3,1,2,321,4,5,15,1,5
s.9c8f2aff-8a53-4043-a99d-8f0ac8cbe47c,nback_real3,3,1,2000,3,6,2,15,1
s.9c8f2aff-8a53-4043-a99d-8f0ac8cbe47c,nback_real3,1,2,108,4,7,13,2,15
s.9c8f2aff-8a53-4043-a99d-8f0ac8cbe47c,nback_real3,3,1,2000,1,8,15,13,2
s.9c8f2aff-8a53-4043-a99d-8f0ac8cbe47c,nback_real3,1,2,1486,3,9,5,15,13
s.9c8f2aff-8a53-4043-a99d-8f0ac8cbe47c,nback_real3,3,1,2000,5,10,7,5,15
s.9c8f2aff-8a53-4043-a99d-8f0ac8cbe47c,nback_real3,3,1,2000,3,11,1,7,5
s.9c8f2aff-8a53-4043-a99d-8f0ac8cbe47c,nback_real3,3,1,2000,5,12,10,1,7
s.9c8f2aff-8a53-4043-a99d-8f0ac8cbe47c,nback_real3,2,1,376,3,13,13,10,1
s.9c8f2aff-8a53-4043-a99d-8f0ac8cbe47c,nback_real3,1,2,461,4,14,7,13,10
s.9c8f2aff-8a53-4043-a99d-8f0ac8cbe47c,nback_real3,1,2,440,4,15,3,7,13
s.9c8f2aff-8a53-4043-a99d-8f0ac8cbe47c,nback_real3,1,2,372,4,16,15,3,7
s.9c8f2aff-8a53-4043-a99d-8f0ac8cbe47c,nback_real3,2,1,357,3,17,12,15,3
s.9c8f2aff-8a53-4043-a99d-8f0ac8cbe47c,nback_real3,1,2,507,3,18,2,12,15
s.9c8f2aff-8a53-4043-a99d-8f0ac8cbe47c,nback_real3,1,2,638,3,19,12,2,12
s.9c8f2aff-8a53-4043-a99d-8f0ac8cbe47c,nback_real3,1,2,308,4,20,6,12,2
s.9c8f2aff-8a53-4043-a99d-8f0ac8cbe47c,nback_real3,1,1,395,1,21,2,6,12
s.9c8f2aff-8a53-4043-a99d-8f0ac8cbe47c,nback_real3,2,2,361,1,22,12,2,6
s.9c8f2aff-8a53-4043-a99d-8f0ac8cbe47c,nback_real3,2,1,315,3,23,1,12,2
s.9c8f2aff-8a53-4043-a99d-8f0ac8cbe47c,nback_real3,1,2,336,2,24,6,1,12
s.9c8f2aff-8a53-4043-a99d-8f0ac8cbe47c,nback_real3,2,2,543,1,25,12,6,1
s.9c8f2aff-8a53-4043-a99d-8f0ac8cbe47c,nback_real3,2,1,285,2,26,15,12,6
s.9c8f2aff-8a53-4043-a99d-8f0ac8cbe47c,nback_real3,1,2,437,3,27,13,15,12
s.9c8f2aff-8a53-4043-a99d-8f0ac8cbe47c,nback_real3,2,1,408,3,28,2,13,15
s.9c8f2aff-8a53-4043-a99d-8f0ac8cbe47c,nback_real3,1,2,339,4,29,6,2,13
s.9c8f2aff-8a53-4043-a99d-8f0ac8cbe47c,nback_real3,1,2,370,5,30,11,6,2
s.9c8f2aff-8a53-4043-a99d-8f0ac8cbe47c,nback_real4,1,2,1146,4,1,2,0,0
s.9c8f2aff-8a53-4043-a99d-8f0ac8cbe47c,nback_real4,1,2,323,4,2,9,2,0
s.9c8f2aff-8a53-4043-a99d-8f0ac8cbe47c,nback_real4,1,2,2,2,3,9,9,2
s.9c8f2aff-8a53-4043-a99d-8f0ac8cbe47c,nback_real4,2,2,509,1,4,2,9,9
s.9c8f2aff-8a53-4043-a99d-8f0ac8cbe47c,nback_real4,1,2,625,5,5,8,2,9
s.9c8f2aff-8a53-4043-a99d-8f0ac8cbe47c,nback_real4,2,1,495,5,6,14,8,2
s.9c8f2aff-8a53-4043-a99d-8f0ac8cbe47c,nback_real4,1,2,387,5,7,9,14,8
s.9c8f2aff-8a53-4043-a99d-8f0ac8cbe47c,nback_real4,1,2,371,4,8,2,9,14
s.9c8f2aff-8a53-4043-a99d-8f0ac8cbe47c,nback_real4,1,2,528,3,9,5,2,9
s.9c8f2aff-8a53-4043-a99d-8f0ac8cbe47c,nback_real4,1,2,149,5,10,14,5,2
s.9c8f2aff-8a53-4043-a99d-8f0ac8cbe47c,nback_real4,1,2,614,3,11,10,14,5
s.9c8f2aff-8a53-4043-a99d-8f0ac8cbe47c,nback_real4,2,2,1062,1,12,5,10,14
s.9c8f2aff-8a53-4043-a99d-8f0ac8cbe47c,nback_real4,1,1,510,1,13,14,5,10
s.9c8f2aff-8a53-4043-a99d-8f0ac8cbe47c,nback_real4,1,2,1864,2,14,9,14,5
s.9c8f2aff-8a53-4043-a99d-8f0ac8cbe47c,nback_real4,1,2,542,5,15,15,9,14
s.9c8f2aff-8a53-4043-a99d-8f0ac8cbe47c,nback_real4,1,2,598,2,16,4,15,9
s.9c8f2aff-8a53-4043-a99d-8f0ac8cbe47c,nback_real4,1,2,1435,4,17,3,4,15
s.9c8f2aff-8a53-4043-a99d-8f0ac8cbe47c,nback_real4,1,2,702,2,18,5,3,4
s.9c8f2aff-8a53-4043-a99d-8f0ac8cbe47c,nback_real4,1,2,445,2,19,3,5,3
s.9c8f2aff-8a53-4043-a99d-8f0ac8cbe47c,nback_real4,1,2,441,3,20,13,3,5
s.9c8f2aff-8a53-4043-a99d-8f0ac8cbe47c,nback_real4,2,2,564,1,21,5,13,3
s.9c8f2aff-8a53-4043-a99d-8f0ac8cbe47c,nback_real4,2,1,400,5,22,11,5,13
s.9c8f2aff-8a53-4043-a99d-8f0ac8cbe47c,nback_real4,1,2,454,3,23,8,11,5
s.9c8f2aff-8a53-4043-a99d-8f0ac8cbe47c,nback_real4,1,2,416,2,24,10,8,11
s.9c8f2aff-8a53-4043-a99d-8f0ac8cbe47c,nback_real4,1,2,819,4,25,5,10,8
s.9c8f2aff-8a53-4043-a99d-8f0ac8cbe47c,nback_real4,2,1,1371,5,26,12,5,10
s.9c8f2aff-8a53-4043-a99d-8f0ac8cbe47c,nback_real4,1,2,354,3,27,12,12,5
s.9c8f2aff-8a53-4043-a99d-8f0ac8cbe47c,nback_real4,1,2,371,5,28,1,12,12
s.9c8f2aff-8a53-4043-a99d-8f0ac8cbe47c,nback_real4,1,2,382,5,29,15,1,12
s.9c8f2aff-8a53-4043-a99d-8f0ac8cbe47c,nback_real4,1,2,18,4,30,8,15,1
s.9c8f2aff-8a53-4043-a99d-8f0ac8cbe47c,nback_real5,1,2,1223,5,1,13,0,0
s.9c8f2aff-8a53-4043-a99d-8f0ac8cbe47c,nback_real5,1,2,305,1,2,2,13,0
s.9c8f2aff-8a53-4043-a99d-8f0ac8cbe47c,nback_real5,1,2,492,4,3,10,2,13
s.9c8f2aff-8a53-4043-a99d-8f0ac8cbe47c,nback_real5,1,2,491,4,4,10,10,2
s.9c8f2aff-8a53-4043-a99d-8f0ac8cbe47c,nback_real5,1,2,271,5,5,13,10,10
s.9c8f2aff-8a53-4043-a99d-8f0ac8cbe47c,nback_real5,2,2,465,1,6,10,13,10
s.9c8f2aff-8a53-4043-a99d-8f0ac8cbe47c,nback_real5,1,2,456,3,7,14,10,13
s.9c8f2aff-8a53-4043-a99d-8f0ac8cbe47c,nback_real5,2,1,1234,2,8,12,14,10
s.9c8f2aff-8a53-4043-a99d-8f0ac8cbe47c,nback_real5,2,2,560,1,9,10,12,14
s.9c8f2aff-8a53-4043-a99d-8f0ac8cbe47c,nback_real5,2,2,507,1,10,14,10,12
s.9c8f2aff-8a53-4043-a99d-8f0ac8cbe47c,nback_real5,2,1,95,2,11,11,14,10
s.9c8f2aff-8a53-4043-a99d-8f0ac8cbe47c,nback_real5,2,2,396,1,12,10,11,14
s.9c8f2aff-8a53-4043-a99d-8f0ac8cbe47c,nback_real5,1,2,470,2,13,1,10,11
s.9c8f2aff-8a53-4043-a99d-8f0ac8cbe47c,nback_real5,1,2,601,3,14,10,1,10
s.9c8f2aff-8a53-4043-a99d-8f0ac8cbe47c,nback_real5,1,2,705,5,15,4,10,1
s.9c8f2aff-8a53-4043-a99d-8f0ac8cbe47c,nback_real5,2,1,669,3,16,11,4,10
s.9c8f2aff-8a53-4043-a99d-8f0ac8cbe47c,nback_real5,1,2,339,3,17,8,11,4
s.9c8f2aff-8a53-4043-a99d-8f0ac8cbe47c,nback_real5,1,2,515,5,18,13,8,11
s.9c8f2aff-8a53-4043-a99d-8f0ac8cbe47c,nback_real5,1,2,437,5,19,7,13,8
s.9c8f2aff-8a53-4043-a99d-8f0ac8cbe47c,nback_real5,1,2,359,2,20,10,7,13
s.9c8f2aff-8a53-4043-a99d-8f0ac8cbe47c,nback_real5,1,2,256,3,21,6,10,7
s.9c8f2aff-8a53-4043-a99d-8f0ac8cbe47c,nback_real5,1,2,317,4,22,8,6,10
s.9c8f2aff-8a53-4043-a99d-8f0ac8cbe47c,nback_real5,2,2,344,1,23,10,8,6
s.9c8f2aff-8a53-4043-a99d-8f0ac8cbe47c,nback_real5,1,1,381,1,24,6,10,8
s.9c8f2aff-8a53-4043-a99d-8f0ac8cbe47c,nback_real5,2,1,405,4,25,4,6,10
s.9c8f2aff-8a53-4043-a99d-8f0ac8cbe47c,nback_real5,1,2,315,3,26,11,4,6
s.9c8f2aff-8a53-4043-a99d-8f0ac8cbe47c,nback_real5,2,2,407,1,27,6,11,4
s.9c8f2aff-8a53-4043-a99d-8f0ac8cbe47c,nback_real5,2,1,377,2,28,14,6,11
s.9c8f2aff-8a53-4043-a99d-8f0ac8cbe47c,nback_real5,2,2,282,1,29,11,14,6
s.9c8f2aff-8a53-4043-a99d-8f0ac8cbe47c,nback_real5,2,1,440,3,30,4,11,14
s.9c59f5d0-e1b2-44bf-964e-29685f3113db,training,1,2,1643,4,1,2,0,0
s.9c59f5d0-e1b2-44bf-964e-29685f3113db,training,1,2,1630,3,2,4,2,0
s.9c59f5d0-e1b2-44bf-964e-29685f3113db,training,1,2,1540,4,3,10,4,2
s.9c59f5d0-e1b2-44bf-964e-29685f3113db,training,1,2,1190,5,4,8,10,4
s.9c59f5d0-e1b2-44bf-964e-29685f3113db,training,1,2,918,5,5,6,8,10
s.9c59f5d0-e1b2-44bf-964e-29685f3113db,training,1,2,1130,5,6,2,6,8
s.9c59f5d0-e1b2-44bf-964e-29685f3113db,training,1,2,1274,2,7,11,2,6
s.9c59f5d0-e1b2-44bf-964e-29685f3113db,training,2,1,1208,3,8,2,11,2
s.9c59f5d0-e1b2-44bf-964e-29685f3113db,training,2,1,1346,2,9,10,2,11
s.9c59f5d0-e1b2-44bf-964e-29685f3113db,training,1,2,1241,2,10,4,10,2
s.9c59f5d0-e1b2-44bf-964e-29685f3113db,training,1,1,1097,1,11,2,4,10
s.9c59f5d0-e1b2-44bf-964e-29685f3113db,training,1,2,1054,5,12,9,2,4
s.9c59f5d0-e1b2-44bf-964e-29685f3113db,training,1,2,1099,4,13,5,9,2
s.9c59f5d0-e1b2-44bf-964e-29685f3113db,training,1,2,1403,5,14,7,5,9
s.9c59f5d0-e1b2-44bf-964e-29685f3113db,training,1,2,1081,2,15,3,7,5
s.9c59f5d0-e1b2-44bf-964e-29685f3113db,nback_real1,3,1,2000,2,1,4,3,7
s.9c59f5d0-e1b2-44bf-964e-29685f3113db,nback_real1,1,2,658,4,2,12,4,3
s.9c59f5d0-e1b2-44bf-964e-29685f3113db,nback_real1,1,2,548,4,3,10,12,4
s.9c59f5d0-e1b2-44bf-964e-29685f3113db,nback_real1,1,2,715,3,4,7,10,12
s.9c59f5d0-e1b2-44bf-964e-29685f3113db,nback_real1,1,2,838,3,5,5,7,10
s.9c59f5d0-e1b2-44bf-964e-29685f3113db,nback_real1,3,1,2000,2,6,4,5,7
s.9c59f5d0-e1b2-44bf-964e-29685f3113db,nback_real1,1,1,1001,1,7,7,4,5
s.9c59f5d0-e1b2-44bf-964e-29685f3113db,nback_real1,1,2,824,2,8,6,7,4
s.9c59f5d0-e1b2-44bf-964e-29685f3113db,nback_real1,1,2,937,4,9,5,6,7
s.9c59f5d0-e1b2-44bf-964e-29685f3113db,nback_real1,1,2,728,2,10,11,5,6
s.9c59f5d0-e1b2-44bf-964e-29685f3113db,nback_real1,1,2,870,5,11,4,11,5
s.9c59f5d0-e1b2-44bf-964e-29685f3113db,nback_real1,1,2,1177,4,12,12,4,11
s.9c59f5d0-e1b2-44bf-964e-29685f3113db,nback_real1,2,1,975,2,13,4,12,4
s.9c59f5d0-e1b2-44bf-964e-29685f3113db,nback_real1,1,2,653,5,14,9,4,12
s.9c59f5d0-e1b2-44bf-964e-29685f3113db,nback_real1,2,2,909,1,15,12,9,4
s.9c59f5d0-e1b2-44bf-964e-29685f3113db,nback_real1,1,2,918,3,16,3,12,9
s.9c59f5d0-e1b2-44bf-964e-29685f3113db,nback_real1,1,2,938,3,17,5,3,12
s.9c59f5d0-e1b2-44bf-964e-29685f3113db,nback_real1,1,2,683,5,18,1,5,3
s.9c59f5d0-e1b2-44bf-964e-29685f3113db,nback_real1,1,1,1439,1,19,3,1,5
s.9c59f5d0-e1b2-44bf-964e-29685f3113db,nback_real1,1,2,771,4,20,13,3,1
s.9c59f5d0-e1b2-44bf-964e-29685f3113db,nback_real1,1,2,1273,2,21,8,13,3
s.9c59f5d0-e1b2-44bf-964e-29685f3113db,nback_real1,2,1,1039,3,22,1,8,13
s.9c59f5d0-e1b2-44bf-964e-29685f3113db,nback_real1,1,2,666,5,23,6,1,8
s.9c59f5d0-e1b2-44bf-964e-29685f3113db,nback_real1,1,2,945,2,24,12,6,1
s.9c59f5d0-e1b2-44bf-964e-29685f3113db,nback_real1,1,2,873,4,25,4,12,6
s.9c59f5d0-e1b2-44bf-964e-29685f3113db,nback_real1,1,2,758,3,26,11,4,12
s.9c59f5d0-e1b2-44bf-964e-29685f3113db,nback_real1,2,2,1274,1,27,12,11,4
s.9c59f5d0-e1b2-44bf-964e-29685f3113db,nback_real1,1,2,797,4,28,14,12,11
s.9c59f5d0-e1b2-44bf-964e-29685f3113db,nback_real1,1,2,917,3,29,3,14,12
s.9c59f5d0-e1b2-44bf-964e-29685f3113db,nback_real1,1,1,1007,1,30,12,3,14
s.9c59f5d0-e1b2-44bf-964e-29685f3113db,nback_real2,1,2,832,5,1,14,0,0
s.9c59f5d0-e1b2-44bf-964e-29685f3113db,nback_real2,1,2,498,1,2,7,14,0
s.9c59f5d0-e1b2-44bf-964e-29685f3113db,nback_real2,1,2,536,3,3,15,7,14
s.9c59f5d0-e1b2-44bf-964e-29685f3113db,nback_real2,1,2,665,2,4,3,15,7
s.9c59f5d0-e1b2-44bf-964e-29685f3113db,nback_real2,1,2,777,2,5,12,3,15
s.9c59f5d0-e1b2-44bf-964e-29685f3113db,nback_real2,1,1,1020,1,6,15,12,3
s.9c59f5d0-e1b2-44bf-964e-29685f3113db,nback_real2,1,1,933,1,7,3,15,12
s.9c59f5d0-e1b2-44bf-964e-29685f3113db,nback_real2,1,2,685,3,8,7,3,15
s.9c59f5d0-e1b2-44bf-964e-29685f3113db,nback_real2,1,2,721,2,9,11,7,3
s.9c59f5d0-e1b2-44bf-964e-29685f3113db,nback_real2,1,2,618,3,10,9,11,7
s.9c59f5d0-e1b2-44bf-964e-29685f3113db,nback_real2,1,2,672,5,11,6,9,11
s.9c59f5d0-e1b2-44bf-964e-29685f3113db,nback_real2,1,1,847,1,12,11,6,9
s.9c59f5d0-e1b2-44bf-964e-29685f3113db,nback_real2,1,2,620,2,13,10,11,6
s.9c59f5d0-e1b2-44bf-964e-29685f3113db,nback_real2,1,1,1099,1,14,6,10,11
s.9c59f5d0-e1b2-44bf-964e-29685f3113db,nback_real2,1,2,642,5,15,8,6,10
s.9c59f5d0-e1b2-44bf-964e-29685f3113db,nback_real2,1,2,698,2,16,12,8,6
s.9c59f5d0-e1b2-44bf-964e-29685f3113db,nback_real2,1,2,851,4,17,11,12,8
s.9c59f5d0-e1b2-44bf-964e-29685f3113db,nback_real2,1,1,755,1,18,8,11,12
s.9c59f5d0-e1b2-44bf-964e-29685f3113db,nback_real2,1,2,611,5,19,15,8,11
s.9c59f5d0-e1b2-44bf-964e-29685f3113db,nback_real2,1,2,881,4,20,6,15,8
s.9c59f5d0-e1b2-44bf-964e-29685f3113db,nback_real2,1,2,1099,3,21,6,6,15
s.9c59f5d0-e1b2-44bf-964e-29685f3113db,nback_real2,1,2,961,4,22,12,6,6
s.9c59f5d0-e1b2-44bf-964e-29685f3113db,nback_real2,1,2,761,4,23,13,12,6
s.9c59f5d0-e1b2-44bf-964e-29685f3113db,nback_real2,1,2,810,5,24,13,13,12
s.9c59f5d0-e1b2-44bf-964e-29685f3113db,nback_real2,1,2,621,3,25,5,13,13
s.9c59f5d0-e1b2-44bf-964e-29685f3113db,nback_real2,1,2,831,3,26,10,5,13
s.9c59f5d0-e1b2-44bf-964e-29685f3113db,nback_real2,1,2,561,2,27,3,10,5
s.9c59f5d0-e1b2-44bf-964e-29685f3113db,nback_real2,1,1,1041,1,28,5,3,10
s.9c59f5d0-e1b2-44bf-964e-29685f3113db,nback_real2,1,2,537,4,29,4,5,3
s.9c59f5d0-e1b2-44bf-964e-29685f3113db,nback_real2,1,2,488,3,30,1,4,5
s.9c59f5d0-e1b2-44bf-964e-29685f3113db,nback_real3,1,2,485,4,1,4,0,0
s.9c59f5d0-e1b2-44bf-964e-29685f3113db,nback_real3,1,2,615,4,2,13,4,0
s.9c59f5d0-e1b2-44bf-964e-29685f3113db,nback_real3,1,2,428,3,3,5,13,4
s.9c59f5d0-e1b2-44bf-964e-29685f3113db,nback_real3,1,2,713,4,4,10,5,13
s.9c59f5d0-e1b2-44bf-964e-29685f3113db,nback_real3,1,2,778,2,5,10,10,5
s.9c59f5d0-e1b2-44bf-964e-29685f3113db,nback_real3,1,2,783,3,6,2,10,10
s.9c59f5d0-e1b2-44bf-964e-29685f3113db,nback_real3,1,2,768,3,7,14,2,10
s.9c59f5d0-e1b2-44bf-964e-29685f3113db,nback_real3,1,2,671,3,8,14,14,2
s.9c59f5d0-e1b2-44bf-964e-29685f3113db,nback_real3,1,2,665,4,9,12,14,14
s.9c59f5d0-e1b2-44bf-964e-29685f3113db,nback_real3,1,2,944,2,10,5,12,14
s.9c59f5d0-e1b2-44bf-964e-29685f3113db,nback_real3,1,2,607,4,11,3,5,12
s.9c59f5d0-e1b2-44bf-964e-29685f3113db,nback_real3,1,2,545,4,12,6,3,5
s.9c59f5d0-e1b2-44bf-964e-29685f3113db,nback_real3,1,2,613,4,13,8,6,3
s.9c59f5d0-e1b2-44bf-964e-29685f3113db,nback_real3,1,2,684,4,14,4,8,6
s.9c59f5d0-e1b2-44bf-964e-29685f3113db,nback_real3,1,2,464,4,15,15,4,8
s.9c59f5d0-e1b2-44bf-964e-29685f3113db,nback_real3,2,2,763,1,16,8,15,4
s.9c59f5d0-e1b2-44bf-964e-29685f3113db,nback_real3,1,2,808,5,17,14,8,15
s.9c59f5d0-e1b2-44bf-964e-29685f3113db,nback_real3,2,1,1150,3,18,5,14,8
s.9c59f5d0-e1b2-44bf-964e-29685f3113db,nback_real3,2,1,860,5,19,12,5,14
s.9c59f5d0-e1b2-44bf-964e-29685f3113db,nback_real3,1,2,1207,4,20,6,12,5
s.9c59f5d0-e1b2-44bf-964e-29685f3113db,nback_real3,1,2,729,3,21,13,6,12
s.9c59f5d0-e1b2-44bf-964e-29685f3113db,nback_real3,1,2,604,3,22,15,13,6
s.9c59f5d0-e1b2-44bf-964e-29685f3113db,nback_real3,1,2,991,5,23,14,15,13
s.9c59f5d0-e1b2-44bf-964e-29685f3113db,nback_real3,2,1,930,2,24,6,14,15
s.9c59f5d0-e1b2-44bf-964e-29685f3113db,nback_real3,1,2,579,2,25,4,6,14
s.9c59f5d0-e1b2-44bf-964e-29685f3113db,nback_real3,2,2,848,1,26,14,4,6
s.9c59f5d0-e1b2-44bf-964e-29685f3113db,nback_real3,1,1,825,1,27,6,14,4
s.9c59f5d0-e1b2-44bf-964e-29685f3113db,nback_real3,1,2,627,5,28,8,6,14
s.9c59f5d0-e1b2-44bf-964e-29685f3113db,nback_real3,1,2,545,3,29,10,8,6
s.9c59f5d0-e1b2-44bf-964e-29685f3113db,nback_real3,1,2,505,4,30,11,10,8
s.9c59f5d0-e1b2-44bf-964e-29685f3113db,nback_real4,1,2,868,1,1,5,0,0
s.9c59f5d0-e1b2-44bf-964e-29685f3113db,nback_real4,1,2,488,3,2,14,5,0
s.9c59f5d0-e1b2-44bf-964e-29685f3113db,nback_real4,1,2,465,2,3,3,14,5
s.9c59f5d0-e1b2-44bf-964e-29685f3113db,nback_real4,1,1,902,1,4,5,3,14
s.9c59f5d0-e1b2-44bf-964e-29685f3113db,nback_real4,1,2,616,3,5,15,5,3
s.9c59f5d0-e1b2-44bf-964e-29685f3113db,nback_real4,2,1,884,5,6,5,15,5
s.9c59f5d0-e1b2-44bf-964e-29685f3113db,nback_real4,1,2,548,3,7,6,5,15
s.9c59f5d0-e1b2-44bf-964e-29685f3113db,nback_real4,1,2,676,3,8,4,6,5
s.9c59f5d0-e1b2-44bf-964e-29685f3113db,nback_real4,1,2,915,2,9,3,4,6
s.9c59f5d0-e1b2-44bf-964e-29685f3113db,nback_real4,1,2,812,3,10,2,3,4
s.9c59f5d0-e1b2-44bf-964e-29685f3113db,nback_real4,1,2,738,3,11,9,2,3
s.9c59f5d0-e1b2-44bf-964e-29685f3113db,nback_real4,1,2,795,4,12,9,9,2
s.9c59f5d0-e1b2-44bf-964e-29685f3113db,nback_real4,1,2,881,4,13,6,9,9
s.9c59f5d0-e1b2-44bf-964e-29685f3113db,nback_real4,1,2,1088,2,14,4,6,9
s.9c59f5d0-e1b2-44bf-964e-29685f3113db,nback_real4,2,1,1087,4,15,15,4,6
s.9c59f5d0-e1b2-44bf-964e-29685f3113db,nback_real4,2,2,1062,1,16,6,15,4
s.9c59f5d0-e1b2-44bf-964e-29685f3113db,nback_real4,1,2,658,4,17,2,6,15
s.9c59f5d0-e1b2-44bf-964e-29685f3113db,nback_real4,1,1,1324,1,18,15,2,6
s.9c59f5d0-e1b2-44bf-964e-29685f3113db,nback_real4,1,2,561,3,19,10,15,2
s.9c59f5d0-e1b2-44bf-964e-29685f3113db,nback_real4,1,1,1310,1,20,2,10,15
s.9c59f5d0-e1b2-44bf-964e-29685f3113db,nback_real4,1,2,1292,3,21,10,2,10
s.9c59f5d0-e1b2-44bf-964e-29685f3113db,nback_real4,1,2,693,5,22,6,10,2
s.9c59f5d0-e1b2-44bf-964e-29685f3113db,nback_real4,1,2,557,4,23,14,6,10
s.9c59f5d0-e1b2-44bf-964e-29685f3113db,nback_real4,1,1,773,1,24,10,14,6
s.9c59f5d0-e1b2-44bf-964e-29685f3113db,nback_real4,1,2,700,5,25,15,10,14
s.9c59f5d0-e1b2-44bf-964e-29685f3113db,nback_real4,1,1,793,1,26,14,15,10
s.9c59f5d0-e1b2-44bf-964e-29685f3113db,nback_real4,1,2,564,4,27,7,14,15
s.9c59f5d0-e1b2-44bf-964e-29685f3113db,nback_real4,1,2,669,4,28,7,7,14
s.9c59f5d0-e1b2-44bf-964e-29685f3113db,nback_real4,1,2,904,3,29,10,7,7
s.9c59f5d0-e1b2-44bf-964e-29685f3113db,nback_real4,1,1,1214,1,30,7,10,7
s.9c59f5d0-e1b2-44bf-964e-29685f3113db,nback_real5,1,2,679,5,1,12,0,0
s.9c59f5d0-e1b2-44bf-964e-29685f3113db,nback_real5,1,2,437,1,2,5,12,0
s.9c59f5d0-e1b2-44bf-964e-29685f3113db,nback_real5,1,2,491,1,3,15,5,12
s.9c59f5d0-e1b2-44bf-964e-29685f3113db,nback_real5,1,2,476,5,4,8,15,5
s.9c59f5d0-e1b2-44bf-964e-29685f3113db,nback_real5,2,2,1077,1,5,5,8,15
s.9c59f5d0-e1b2-44bf-964e-29685f3113db,nback_real5,1,2,719,3,6,4,5,8
s.9c59f5d0-e1b2-44bf-964e-29685f3113db,nback_real5,1,1,708,1,7,8,4,5
s.9c59f5d0-e1b2-44bf-964e-29685f3113db,nback_real5,1,2,486,4,8,1,8,4
s.9c59f5d0-e1b2-44bf-964e-29685f3113db,nback_real5,2,1,1269,5,9,5,1,8
s.9c59f5d0-e1b2-44bf-964e-29685f3113db,nback_real5,1,1,828,1,10,8,5,1
s.9c59f5d0-e1b2-44bf-964e-29685f3113db,nback_real5,1,2,593,4,11,4,8,5
s.9c59f5d0-e1b2-44bf-964e-29685f3113db,nback_real5,1,2,510,4,12,11,4,8
s.9c59f5d0-e1b2-44bf-964e-29685f3113db,nback_real5,1,2,971,5,13,15,11,4
s.9c59f5d0-e1b2-44bf-964e-29685f3113db,nback_real5,1,2,945,5,14,2,15,11
s.9c59f5d0-e1b2-44bf-964e-29685f3113db,nback_real5,1,2,740,3,15,2,2,15
s.9c59f5d0-e1b2-44bf-964e-29685f3113db,nback_real5,1,2,851,3,16,3,2,2
s.9c59f5d0-e1b2-44bf-964e-29685f3113db,nback_real5,1,1,992,1,17,2,3,2
s.9c59f5d0-e1b2-44bf-964e-29685f3113db,nback_real5,1,2,722,4,18,1,2,3
s.9c59f5d0-e1b2-44bf-964e-29685f3113db,nback_real5,1,2,861,2,19,9,1,2
s.9c59f5d0-e1b2-44bf-964e-29685f3113db,nback_real5,1,2,739,3,20,13,9,1
s.9c59f5d0-e1b2-44bf-964e-29685f3113db,nback_real5,1,2,1154,3,21,10,13,9
s.9c59f5d0-e1b2-44bf-964e-29685f3113db,nback_real5,1,2,631,3,22,11,10,13
s.9c59f5d0-e1b2-44bf-964e-29685f3113db,nback_real5,1,2,558,4,23,7,11,10
s.9c59f5d0-e1b2-44bf-964e-29685f3113db,nback_real5,1,2,770,3,24,1,7,11
s.9c59f5d0-e1b2-44bf-964e-29685f3113db,nback_real5,1,2,1472,3,25,7,1,7
s.9c59f5d0-e1b2-44bf-964e-29685f3113db,nback_real5,1,2,603,4,26,3,7,1
s.9c59f5d0-e1b2-44bf-964e-29685f3113db,nback_real5,1,2,777,3,27,10,3,7
s.9c59f5d0-e1b2-44bf-964e-29685f3113db,nback_real5,1,1,898,1,28,7,10,3
s.9c59f5d0-e1b2-44bf-964e-29685f3113db,nback_real5,1,2,1023,2,29,14,7,10
s.9c59f5d0-e1b2-44bf-964e-29685f3113db,nback_real5,1,2,782,2,30,13,14,7
s.7fed2f31-a494-46c3-abe8-8f42069a3d26,training,3,1,2000,5,1,8,0,0
s.7fed2f31-a494-46c3-abe8-8f42069a3d26,training,1,2,616,4,2,2,8,0
s.7fed2f31-a494-46c3-abe8-8f42069a3d26,training,1,2,746,2,3,2,2,8
s.7fed2f31-a494-46c3-abe8-8f42069a3d26,training,1,2,629,5,4,11,2,2
s.7fed2f31-a494-46c3-abe8-8f42069a3d26,training,1,2,1003,3,5,1,11,2
s.7fed2f31-a494-46c3-abe8-8f42069a3d26,training,1,2,474,2,6,5,1,11
s.7fed2f31-a494-46c3-abe8-8f42069a3d26,training,1,2,420,5,7,7,5,1
s.7fed2f31-a494-46c3-abe8-8f42069a3d26,training,2,2,829,1,8,1,7,5
s.7fed2f31-a494-46c3-abe8-8f42069a3d26,training,1,2,561,4,9,12,1,7
s.7fed2f31-a494-46c3-abe8-8f42069a3d26,training,1,2,458,2,10,4,12,1
s.7fed2f31-a494-46c3-abe8-8f42069a3d26,training,1,2,510,3,11,8,4,12
s.7fed2f31-a494-46c3-abe8-8f42069a3d26,training,1,2,923,4,12,11,8,4
s.7fed2f31-a494-46c3-abe8-8f42069a3d26,training,1,2,631,5,13,5,11,8
s.7fed2f31-a494-46c3-abe8-8f42069a3d26,training,1,1,909,1,14,8,5,11
s.7fed2f31-a494-46c3-abe8-8f42069a3d26,training,1,2,599,5,15,3,8,5
s.7fed2f31-a494-46c3-abe8-8f42069a3d26,nback_real1,1,2,410,2,1,14,3,8
s.7fed2f31-a494-46c3-abe8-8f42069a3d26,nback_real1,1,2,590,4,2,7,14,3
s.7fed2f31-a494-46c3-abe8-8f42069a3d26,nback_real1,1,2,592,5,3,5,7,14
s.7fed2f31-a494-46c3-abe8-8f42069a3d26,nback_real1,1,1,641,1,4,14,5,7
s.7fed2f31-a494-46c3-abe8-8f42069a3d26,nback_real1,1,2,615,2,5,6,14,5
s.7fed2f31-a494-46c3-abe8-8f42069a3d26,nback_real1,1,2,743,5,6,12,6,14
s.7fed2f31-a494-46c3-abe8-8f42069a3d26,nback_real1,1,2,996,3,7,12,12,6
s.7fed2f31-a494-46c3-abe8-8f42069a3d26,nback_real1,1,2,703,5,8,8,12,12
s.7fed2f31-a494-46c3-abe8-8f42069a3d26,nback_real1,2,1,1088,4,9,14,8,12
s.7fed2f31-a494-46c3-abe8-8f42069a3d26,nback_real1,1,2,473,3,10,13,14,8
s.7fed2f31-a494-46c3-abe8-8f42069a3d26,nback_real1,1,2,475,3,11,4,13,14
s.7fed2f31-a494-46c3-abe8-8f42069a3d26,nback_real1,2,2,908,1,12,14,4,13
s.7fed2f31-a494-46c3-abe8-8f42069a3d26,nback_real1,2,1,969,5,13,8,14,4
s.7fed2f31-a494-46c3-abe8-8f42069a3d26,nback_real1,2,2,521,1,14,4,8,14
s.7fed2f31-a494-46c3-abe8-8f42069a3d26,nback_real1,1,2,657,5,15,10,4,8
s.7fed2f31-a494-46c3-abe8-8f42069a3d26,nback_real1,1,2,434,3,16,9,10,4
s.7fed2f31-a494-46c3-abe8-8f42069a3d26,nback_real1,1,2,476,2,17,1,9,10
s.7fed2f31-a494-46c3-abe8-8f42069a3d26,nback_real1,1,2,434,5,18,4,1,9
s.7fed2f31-a494-46c3-abe8-8f42069a3d26,nback_real1,1,2,419,2,19,3,4,1
s.7fed2f31-a494-46c3-abe8-8f42069a3d26,nback_real1,2,2,550,1,20,1,3,4
s.7fed2f31-a494-46c3-abe8-8f42069a3d26,nback_real1,1,2,495,4,21,14,1,3
s.7fed2f31-a494-46c3-abe8-8f42069a3d26,nback_real1,1,2,529,5,22,15,14,1
s.7fed2f31-a494-46c3-abe8-8f42069a3d26,nback_real1,1,2,419,4,23,8,15,14
s.7fed2f31-a494-46c3-abe8-8f42069a3d26,nback_real1,2,1,367,3,24,2,8,15
s.7fed2f31-a494-46c3-abe8-8f42069a3d26,nback_real1,1,2,329,3,25,1,2,8
s.7fed2f31-a494-46c3-abe8-8f42069a3d26,nback_real1,1,2,454,4,26,12,1,2
s.7fed2f31-a494-46c3-abe8-8f42069a3d26,nback_real1,2,2,374,1,27,2,12,1
s.7fed2f31-a494-46c3-abe8-8f42069a3d26,nback_real1,1,2,376,4,28,10,2,12
s.7fed2f31-a494-46c3-abe8-8f42069a3d26,nback_real1,1,2,469,2,29,11,10,2
s.7fed2f31-a494-46c3-abe8-8f42069a3d26,nback_real1,1,2,442,3,30,14,11,10
s.7fed2f31-a494-46c3-abe8-8f42069a3d26,nback_real2,1,2,1013,4,1,8,0,0
s.7fed2f31-a494-46c3-abe8-8f42069a3d26,nback_real2,1,2,332,3,2,14,8,0
s.7fed2f31-a494-46c3-abe8-8f42069a3d26,nback_real2,1,2,450,2,3,13,14,8
s.7fed2f31-a494-46c3-abe8-8f42069a3d26,nback_real2,1,2,1121,3,4,14,13,14
s.7fed2f31-a494-46c3-abe8-8f42069a3d26,nback_real2,1,2,765,4,5,6,14,13
s.7fed2f31-a494-46c3-abe8-8f42069a3d26,nback_real2,1,2,592,3,6,10,6,14
s.7fed2f31-a494-46c3-abe8-8f42069a3d26,nback_real2,1,2,1044,4,7,6,10,6
s.7fed2f31-a494-46c3-abe8-8f42069a3d26,nback_real2,1,1,1254,1,8,6,6,10
s.7fed2f31-a494-46c3-abe8-8f42069a3d26,nback_real2,1,2,665,2,9,6,6,6
s.7fed2f31-a494-46c3-abe8-8f42069a3d26,nback_real2,1,2,535,5,10,9,6,6
s.7fed2f31-a494-46c3-abe8-8f42069a3d26,nback_real2,1,2,504,5,11,15,9,6
s.7fed2f31-a494-46c3-abe8-8f42069a3d26,nback_real2,1,2,678,5,12,13,15,9
s.7fed2f31-a494-46c3-abe8-8f42069a3d26,nback_real2,1,2,1205,2,13,3,13,15
s.7fed2f31-a494-46c3-abe8-8f42069a3d26,nback_real2,1,2,865,5,14,14,3,13
s.7fed2f31-a494-46c3-abe8-8f42069a3d26,nback_real2,1,2,762,4,15,8,14,3
s.7fed2f31-a494-46c3-abe8-8f42069a3d26,nback_real2,1,2,660,2,16,13,8,14
s.7fed2f31-a494-46c3-abe8-8f42069a3d26,nback_real2,1,2,487,4,17,8,13,8
s.7fed2f31-a494-46c3-abe8-8f42069a3d26,nback_real2,2,1,694,3,18,13,8,13
s.7fed2f31-a494-46c3-abe8-8f42069a3d26,nback_real2,1,1,670,1,19,13,13,8
s.7fed2f31-a494-46c3-abe8-8f42069a3d26,nback_real2,1,2,408,4,20,7,13,13
s.7fed2f31-a494-46c3-abe8-8f42069a3d26,nback_real2,1,2,335,5,21,2,7,13
s.7fed2f31-a494-46c3-abe8-8f42069a3d26,nback_real2,1,2,415,5,22,3,2,7
s.7fed2f31-a494-46c3-abe8-8f42069a3d26,nback_real2,2,2,478,1,23,7,3,2
s.7fed2f31-a494-46c3-abe8-8f42069a3d26,nback_real2,1,2,717,4,24,8,7,3
s.7fed2f31-a494-46c3-abe8-8f42069a3d26,nback_real2,1,2,1232,3,25,12,8,7
s.7fed2f31-a494-46c3-abe8-8f42069a3d26,nback_real2,2,2,673,1,26,7,12,8
s.7fed2f31-a494-46c3-abe8-8f42069a3d26,nback_real2,2,2,437,1,27,8,7,12
s.7fed2f31-a494-46c3-abe8-8f42069a3d26,nback_real2,1,2,370,4,28,11,8,7
s.7fed2f31-a494-46c3-abe8-8f42069a3d26,nback_real2,1,2,471,4,29,12,11,8
s.7fed2f31-a494-46c3-abe8-8f42069a3d26,nback_real2,1,1,444,1,30,8,12,11
s.7fed2f31-a494-46c3-abe8-8f42069a3d26,nback_real3,1,2,1569,3,1,11,0,0
s.7fed2f31-a494-46c3-abe8-8f42069a3d26,nback_real3,1,2,264,4,2,15,11,0
s.7fed2f31-a494-46c3-abe8-8f42069a3d26,nback_real3,1,2,509,4,3,1,15,11
s.7fed2f31-a494-46c3-abe8-8f42069a3d26,nback_real3,1,2,557,3,4,14,1,15
s.7fed2f31-a494-46c3-abe8-8f42069a3d26,nback_real3,1,2,512,4,5,6,14,1
s.7fed2f31-a494-46c3-abe8-8f42069a3d26,nback_real3,1,2,851,3,6,6,6,14
s.7fed2f31-a494-46c3-abe8-8f42069a3d26,nback_real3,1,2,484,2,7,11,6,6
s.7fed2f31-a494-46c3-abe8-8f42069a3d26,nback_real3,1,2,432,3,8,9,11,6
s.7fed2f31-a494-46c3-abe8-8f42069a3d26,nback_real3,1,2,595,3,9,1,9,11
s.7fed2f31-a494-46c3-abe8-8f42069a3d26,nback_real3,1,2,1201,5,10,10,1,9
s.7fed2f31-a494-46c3-abe8-8f42069a3d26,nback_real3,1,2,1132,4,11,8,10,1
s.7fed2f31-a494-46c3-abe8-8f42069a3d26,nback_real3,1,2,1061,4,12,8,8,10
s.7fed2f31-a494-46c3-abe8-8f42069a3d26,nback_real3,1,2,520,3,13,14,8,8
s.7fed2f31-a494-46c3-abe8-8f42069a3d26,nback_real3,1,2,838,2,14,3,14,8
s.7fed2f31-a494-46c3-abe8-8f42069a3d26,nback_real3,1,2,420,4,15,15,3,14
s.7fed2f31-a494-46c3-abe8-8f42069a3d26,nback_real3,1,2,490,2,16,1,15,3
s.7fed2f31-a494-46c3-abe8-8f42069a3d26,nback_real3,2,2,1048,1,17,3,1,15
s.7fed2f31-a494-46c3-abe8-8f42069a3d26,nback_real3,1,2,438,2,18,14,3,1
s.7fed2f31-a494-46c3-abe8-8f42069a3d26,nback_real3,1,2,981,3,19,5,14,3
s.7fed2f31-a494-46c3-abe8-8f42069a3d26,nback_real3,1,2,326,5,20,6,5,14
s.7fed2f31-a494-46c3-abe8-8f42069a3d26,nback_real3,2,2,329,1,21,14,6,5
s.7fed2f31-a494-46c3-abe8-8f42069a3d26,nback_real3,1,2,312,4,22,12,14,6
s.7fed2f31-a494-46c3-abe8-8f42069a3d26,nback_real3,1,2,338,3,23,14,12,14
s.7fed2f31-a494-46c3-abe8-8f42069a3d26,nback_real3,1,2,623,3,24,6,14,12
s.7fed2f31-a494-46c3-abe8-8f42069a3d26,nback_real3,2,2,409,1,25,12,6,14
s.7fed2f31-a494-46c3-abe8-8f42069a3d26,nback_real3,1,2,235,4,26,2,12,6
s.7fed2f31-a494-46c3-abe8-8f42069a3d26,nback_real3,2,2,406,1,27,6,2,12
s.7fed2f31-a494-46c3-abe8-8f42069a3d26,nback_real3,2,1,323,3,28,11,6,2
s.7fed2f31-a494-46c3-abe8-8f42069a3d26,nback_real3,1,2,312,2,29,9,11,6
s.7fed2f31-a494-46c3-abe8-8f42069a3d26,nback_real3,1,2,254,4,30,14,9,11
s.7fed2f31-a494-46c3-abe8-8f42069a3d26,nback_real4,1,2,1192,3,1,15,0,0
s.7fed2f31-a494-46c3-abe8-8f42069a3d26,nback_real4,1,2,675,1,2,15,15,0
s.7fed2f31-a494-46c3-abe8-8f42069a3d26,nback_real4,1,2,633,5,3,7,15,15
s.7fed2f31-a494-46c3-abe8-8f42069a3d26,nback_real4,1,2,807,5,4,7,7,15
s.7fed2f31-a494-46c3-abe8-8f42069a3d26,nback_real4,1,1,792,1,5,15,7,7
s.7fed2f31-a494-46c3-abe8-8f42069a3d26,nback_real4,2,2,1238,1,6,7,15,7
s.7fed2f31-a494-46c3-abe8-8f42069a3d26,nback_real4,1,2,819,3,7,13,7,15
s.7fed2f31-a494-46c3-abe8-8f42069a3d26,nback_real4,1,1,710,1,8,15,13,7
s.7fed2f31-a494-46c3-abe8-8f42069a3d26,nback_real4,1,2,412,2,9,2,15,13
s.7fed2f31-a494-46c3-abe8-8f42069a3d26,nback_real4,2,2,708,1,10,13,2,15
s.7fed2f31-a494-46c3-abe8-8f42069a3d26,nback_real4,1,2,836,5,11,9,13,2
s.7fed2f31-a494-46c3-abe8-8f42069a3d26,nback_real4,1,1,798,1,12,2,9,13
s.7fed2f31-a494-46c3-abe8-8f42069a3d26,nback_real4,1,2,734,4,13,5,2,9
s.7fed2f31-a494-46c3-abe8-8f42069a3d26,nback_real4,1,2,608,4,14,13,5,2
s.7fed2f31-a494-46c3-abe8-8f42069a3d26,nback_real4,1,1,582,1,15,2,13,5
s.7fed2f31-a494-46c3-abe8-8f42069a3d26,nback_real4,1,2,523,5,16,6,2,13
s.7fed2f31-a494-46c3-abe8-8f42069a3d26,nback_real4,1,2,537,4,17,14,6,2
s.7fed2f31-a494-46c3-abe8-8f42069a3d26,nback_real4,1,2,878,3,18,14,14,6
s.7fed2f31-a494-46c3-abe8-8f42069a3d26,nback_real4,1,2,1458,5,19,14,14,14
s.7fed2f31-a494-46c3-abe8-8f42069a3d26,nback_real4,1,2,717,5,20,6,14,14
s.7fed2f31-a494-46c3-abe8-8f42069a3d26,nback_real4,1,2,1172,4,21,5,6,14
s.7fed2f31-a494-46c3-abe8-8f42069a3d26,nback_real4,1,2,654,4,22,12,5,6
s.7fed2f31-a494-46c3-abe8-8f42069a3d26,nback_real4,1,1,1373,1,23,6,12,5
s.7fed2f31-a494-46c3-abe8-8f42069a3d26,nback_real4,1,1,1126,1,24,5,6,12
s.7fed2f31-a494-46c3-abe8-8f42069a3d26,nback_real4,1,2,528,2,25,2,5,6
s.7fed2f31-a494-46c3-abe8-8f42069a3d26,nback_real4,2,2,868,1,26,6,2,5
s.7fed2f31-a494-46c3-abe8-8f42069a3d26,nback_real4,1,2,1181,5,27,12,6,2
s.7fed2f31-a494-46c3-abe8-8f42069a3d26,nback_real4,1,2,534,5,28,9,12,6
s.7fed2f31-a494-46c3-abe8-8f42069a3d26,nback_real4,1,2,651,3,29,1,9,12
s.7fed2f31-a494-46c3-abe8-8f42069a3d26,nback_real4,1,2,721,3,30,9,1,9
s.7fed2f31-a494-46c3-abe8-8f42069a3d26,nback_real5,1,2,880,5,1,10,0,0
s.7fed2f31-a494-46c3-abe8-8f42069a3d26,nback_real5,1,2,405,1,2,13,10,0
s.7fed2f31-a494-46c3-abe8-8f42069a3d26,nback_real5,1,2,405,3,3,1,13,10
s.7fed2f31-a494-46c3-abe8-8f42069a3d26,nback_real5,1,2,583,2,4,11,1,13
s.7fed2f31-a494-46c3-abe8-8f42069a3d26,nback_real5,1,2,459,3,5,8,11,1
s.7fed2f31-a494-46c3-abe8-8f42069a3d26,nback_real5,1,2,436,5,6,14,8,11
s.7fed2f31-a494-46c3-abe8-8f42069a3d26,nback_real5,1,2,892,4,7,9,14,8
s.7fed2f31-a494-46c3-abe8-8f42069a3d26,nback_real5,1,2,447,4,8,4,9,14
s.7fed2f31-a494-46c3-abe8-8f42069a3d26,nback_real5,1,2,813,3,9,13,4,9
s.7fed2f31-a494-46c3-abe8-8f42069a3d26,nback_real5,1,1,1063,1,10,9,13,4
s.7fed2f31-a494-46c3-abe8-8f42069a3d26,nback_real5,2,2,1937,1,11,4,9,13
s.7fed2f31-a494-46c3-abe8-8f42069a3d26,nback_real5,1,2,595,4,12,15,4,9
s.7fed2f31-a494-46c3-abe8-8f42069a3d26,nback_real5,1,2,468,5,13,2,15,4
s.7fed2f31-a494-46c3-abe8-8f42069a3d26,nback_real5,1,2,621,5,14,2,2,15
s.7fed2f31-a494-46c3-abe8-8f42069a3d26,nback_real5,1,2,1021,5,15,7,2,2
s.7fed2f31-a494-46c3-abe8-8f42069a3d26,nback_real5,1,2,595,4,16,15,7,2
s.7fed2f31-a494-46c3-abe8-8f42069a3d26,nback_real5,1,2,657,3,17,7,15,7
s.7fed2f31-a494-46c3-abe8-8f42069a3d26,nback_real5,1,2,588,4,18,9,7,15
s.7fed2f31-a494-46c3-abe8-8f42069a3d26,nback_real5,1,2,1193,5,19,9,9,7
s.7fed2f31-a494-46c3-abe8-8f42069a3d26,nback_real5,1,2,1011,5,20,6,9,9
s.7fed2f31-a494-46c3-abe8-8f42069a3d26,nback_real5,1,2,552,4,21,7,6,9
s.7fed2f31-a494-46c3-abe8-8f42069a3d26,nback_real5,1,2,622,4,22,11,7,6
s.7fed2f31-a494-46c3-abe8-8f42069a3d26,nback_real5,1,2,444,3,23,12,11,7
s.7fed2f31-a494-46c3-abe8-8f42069a3d26,nback_real5,1,2,639,3,24,14,12,11
s.7fed2f31-a494-46c3-abe8-8f42069a3d26,nback_real5,2,2,481,1,25,11,14,12
s.7fed2f31-a494-46c3-abe8-8f42069a3d26,nback_real5,1,2,449,3,26,1,11,14
s.7fed2f31-a494-46c3-abe8-8f42069a3d26,nback_real5,1,2,1000,5,27,4,1,11
s.7fed2f31-a494-46c3-abe8-8f42069a3d26,nback_real5,1,2,468,3,28,12,4,1
s.7fed2f31-a494-46c3-abe8-8f42069a3d26,nback_real5,1,2,535,3,29,5,12,4
s.7fed2f31-a494-46c3-abe8-8f42069a3d26,nback_real5,1,2,589,2,30,15,5,12
s.cb72fee7-7fc6-47f7-9ece-2793ec87bd50,training,3,1,2000,1,1,8,0,0
s.cb72fee7-7fc6-47f7-9ece-2793ec87bd50,training,3,1,2000,1,2,9,8,0
s.cb72fee7-7fc6-47f7-9ece-2793ec87bd50,training,3,1,2000,1,3,13,9,8
s.cb72fee7-7fc6-47f7-9ece-2793ec87bd50,training,1,2,1356,3,4,15,13,9
s.cb72fee7-7fc6-47f7-9ece-2793ec87bd50,training,2,1,1283,4,5,10,15,13
s.cb72fee7-7fc6-47f7-9ece-2793ec87bd50,training,1,1,974,1,6,13,10,15
s.cb72fee7-7fc6-47f7-9ece-2793ec87bd50,training,2,1,1489,4,7,9,13,10
s.cb72fee7-7fc6-47f7-9ece-2793ec87bd50,training,1,2,1331,5,8,7,9,13
s.cb72fee7-7fc6-47f7-9ece-2793ec87bd50,training,1,2,1330,2,9,6,7,9
s.cb72fee7-7fc6-47f7-9ece-2793ec87bd50,training,1,2,762,4,10,5,6,7
s.cb72fee7-7fc6-47f7-9ece-2793ec87bd50,training,1,2,978,4,11,4,5,6
s.cb72fee7-7fc6-47f7-9ece-2793ec87bd50,training,1,2,795,5,12,1,4,5
s.cb72fee7-7fc6-47f7-9ece-2793ec87bd50,training,2,1,961,2,13,7,1,4
s.cb72fee7-7fc6-47f7-9ece-2793ec87bd50,training,1,2,1159,5,14,13,7,1
s.cb72fee7-7fc6-47f7-9ece-2793ec87bd50,training,2,1,1059,4,15,13,13,7
s.cb72fee7-7fc6-47f7-9ece-2793ec87bd50,nback_real1,3,1,2000,3,1,14,13,13
s.cb72fee7-7fc6-47f7-9ece-2793ec87bd50,nback_real1,1,2,718,2,2,4,14,13
s.cb72fee7-7fc6-47f7-9ece-2793ec87bd50,nback_real1,1,2,861,2,3,15,4,14
s.cb72fee7-7fc6-47f7-9ece-2793ec87bd50,nback_real1,1,2,888,4,4,5,15,4
s.cb72fee7-7fc6-47f7-9ece-2793ec87bd50,nback_real1,1,2,1112,4,5,11,5,15
s.cb72fee7-7fc6-47f7-9ece-2793ec87bd50,nback_real1,1,2,788,3,6,1,11,5
s.cb72fee7-7fc6-47f7-9ece-2793ec87bd50,nback_real1,1,1,748,1,7,5,1,11
s.cb72fee7-7fc6-47f7-9ece-2793ec87bd50,nback_real1,1,2,1089,2,8,10,5,1
s.cb72fee7-7fc6-47f7-9ece-2793ec87bd50,nback_real1,1,2,739,4,9,12,10,5
s.cb72fee7-7fc6-47f7-9ece-2793ec87bd50,nback_real1,1,2,904,5,10,3,12,10
s.cb72fee7-7fc6-47f7-9ece-2793ec87bd50,nback_real1,2,2,1459,1,11,10,3,12
s.cb72fee7-7fc6-47f7-9ece-2793ec87bd50,nback_real1,1,2,876,3,12,2,10,3
s.cb72fee7-7fc6-47f7-9ece-2793ec87bd50,nback_real1,1,2,1747,4,13,15,2,10
s.cb72fee7-7fc6-47f7-9ece-2793ec87bd50,nback_real1,1,2,1016,2,14,14,15,2
s.cb72fee7-7fc6-47f7-9ece-2793ec87bd50,nback_real1,2,1,1388,2,15,1,14,15
s.cb72fee7-7fc6-47f7-9ece-2793ec87bd50,nback_real1,1,2,1087,2,16,6,1,14
s.cb72fee7-7fc6-47f7-9ece-2793ec87bd50,nback_real1,1,2,940,5,17,13,6,1
s.cb72fee7-7fc6-47f7-9ece-2793ec87bd50,nback_real1,2,1,811,5,18,6,13,6
s.cb72fee7-7fc6-47f7-9ece-2793ec87bd50,nback_real1,2,1,812,4,19,9,6,13
s.cb72fee7-7fc6-47f7-9ece-2793ec87bd50,nback_real1,1,2,872,2,20,10,9,6
s.cb72fee7-7fc6-47f7-9ece-2793ec87bd50,nback_real1,2,1,1156,5,21,9,10,9
s.cb72fee7-7fc6-47f7-9ece-2793ec87bd50,nback_real1,1,2,1339,4,22,4,9,10
s.cb72fee7-7fc6-47f7-9ece-2793ec87bd50,nback_real1,2,1,1136,3,23,9,4,9
s.cb72fee7-7fc6-47f7-9ece-2793ec87bd50,nback_real1,1,2,1217,3,24,1,9,4
s.cb72fee7-7fc6-47f7-9ece-2793ec87bd50,nback_real1,1,2,1002,2,25,14,1,9
s.cb72fee7-7fc6-47f7-9ece-2793ec87bd50,nback_real1,1,2,1262,2,26,10,14,1
s.cb72fee7-7fc6-47f7-9ece-2793ec87bd50,nback_real1,2,1,1266,4,27,11,10,14
s.cb72fee7-7fc6-47f7-9ece-2793ec87bd50,nback_real1,1,2,827,3,28,12,11,10
s.cb72fee7-7fc6-47f7-9ece-2793ec87bd50,nback_real1,2,1,1669,4,29,14,12,11
s.cb72fee7-7fc6-47f7-9ece-2793ec87bd50,nback_real1,1,2,726,2,30,7,14,12
s.cb72fee7-7fc6-47f7-9ece-2793ec87bd50,nback_real2,1,2,1781,2,1,5,0,0
s.cb72fee7-7fc6-47f7-9ece-2793ec87bd50,nback_real2,1,2,976,2,2,9,5,0
s.cb72fee7-7fc6-47f7-9ece-2793ec87bd50,nback_real2,1,2,962,2,3,4,9,5
s.cb72fee7-7fc6-47f7-9ece-2793ec87bd50,nback_real2,1,2,862,2,4,6,4,9
s.cb72fee7-7fc6-47f7-9ece-2793ec87bd50,nback_real2,1,2,1231,5,5,14,6,4
s.cb72fee7-7fc6-47f7-9ece-2793ec87bd50,nback_real2,2,1,1134,5,6,5,14,6
s.cb72fee7-7fc6-47f7-9ece-2793ec87bd50,nback_real2,1,2,1132,2,7,13,5,14
s.cb72fee7-7fc6-47f7-9ece-2793ec87bd50,nback_real2,1,2,818,4,8,7,13,5
s.cb72fee7-7fc6-47f7-9ece-2793ec87bd50,nback_real2,1,1,1013,1,9,5,7,13
s.cb72fee7-7fc6-47f7-9ece-2793ec87bd50,nback_real2,2,2,749,1,10,13,5,7
s.cb72fee7-7fc6-47f7-9ece-2793ec87bd50,nback_real2,1,2,1507,4,11,9,13,5
s.cb72fee7-7fc6-47f7-9ece-2793ec87bd50,nback_real2,1,2,930,3,12,10,9,13
s.cb72fee7-7fc6-47f7-9ece-2793ec87bd50,nback_real2,2,1,1085,3,13,6,10,9
s.cb72fee7-7fc6-47f7-9ece-2793ec87bd50,nback_real2,1,2,753,5,14,1,6,10
s.cb72fee7-7fc6-47f7-9ece-2793ec87bd50,nback_real2,1,2,1102,3,15,13,1,6
s.cb72fee7-7fc6-47f7-9ece-2793ec87bd50,nback_real2,1,2,1266,5,16,1,13,1
s.cb72fee7-7fc6-47f7-9ece-2793ec87bd50,nback_real2,1,2,1200,3,17,15,1,13
s.cb72fee7-7fc6-47f7-9ece-2793ec87bd50,nback_real2,1,2,956,5,18,4,15,1
s.cb72fee7-7fc6-47f7-9ece-2793ec87bd50,nback_real2,1,2,1300,2,19,6,4,15
s.cb72fee7-7fc6-47f7-9ece-2793ec87bd50,nback_real2,1,1,1039,1,20,15,6,4
s.cb72fee7-7fc6-47f7-9ece-2793ec87bd50,nback_real2,2,1,1277,5,21,1,15,6
s.cb72fee7-7fc6-47f7-9ece-2793ec87bd50,nback_real2,2,1,1234,3,22,1,1,15
s.cb72fee7-7fc6-47f7-9ece-2793ec87bd50,nback_real2,1,2,1005,2,23,13,1,1
s.cb72fee7-7fc6-47f7-9ece-2793ec87bd50,nback_real2,1,2,1085,3,24,7,13,1
s.cb72fee7-7fc6-47f7-9ece-2793ec87bd50,nback_real2,1,2,829,4,25,3,7,13
s.cb72fee7-7fc6-47f7-9ece-2793ec87bd50,nback_real2,1,2,1066,2,26,5,3,7
s.cb72fee7-7fc6-47f7-9ece-2793ec87bd50,nback_real2,1,2,801,5,27,12,5,3
s.cb72fee7-7fc6-47f7-9ece-2793ec87bd50,nback_real2,1,2,954,4,28,10,12,5
s.cb72fee7-7fc6-47f7-9ece-2793ec87bd50,nback_real2,1,2,670,2,29,7,10,12
s.cb72fee7-7fc6-47f7-9ece-2793ec87bd50,nback_real2,2,1,1243,4,30,10,7,10
s.cb72fee7-7fc6-47f7-9ece-2793ec87bd50,nback_real3,1,2,1099,3,1,7,0,0
s.cb72fee7-7fc6-47f7-9ece-2793ec87bd50,nback_real3,1,2,916,5,2,15,7,0
s.cb72fee7-7fc6-47f7-9ece-2793ec87bd50,nback_real3,1,2,873,1,3,3,15,7
s.cb72fee7-7fc6-47f7-9ece-2793ec87bd50,nback_real3,1,2,678,4,4,1,3,15
s.cb72fee7-7fc6-47f7-9ece-2793ec87bd50,nback_real3,1,2,702,3,5,11,1,3
s.cb72fee7-7fc6-47f7-9ece-2793ec87bd50,nback_real3,1,2,854,2,6,13,11,1
s.cb72fee7-7fc6-47f7-9ece-2793ec87bd50,nback_real3,1,2,940,2,7,13,13,11
s.cb72fee7-7fc6-47f7-9ece-2793ec87bd50,nback_real3,1,2,712,2,8,10,13,13
s.cb72fee7-7fc6-47f7-9ece-2793ec87bd50,nback_real3,1,2,869,4,9,2,10,13
s.cb72fee7-7fc6-47f7-9ece-2793ec87bd50,nback_real3,1,1,608,1,10,13,2,10
s.cb72fee7-7fc6-47f7-9ece-2793ec87bd50,nback_real3,1,2,834,5,11,9,13,2
s.cb72fee7-7fc6-47f7-9ece-2793ec87bd50,nback_real3,1,2,864,3,12,6,9,13
s.cb72fee7-7fc6-47f7-9ece-2793ec87bd50,nback_real3,2,2,1103,1,13,13,6,9
s.cb72fee7-7fc6-47f7-9ece-2793ec87bd50,nback_real3,2,2,1553,1,14,9,13,6
s.cb72fee7-7fc6-47f7-9ece-2793ec87bd50,nback_real3,2,2,1354,1,15,6,9,13
s.cb72fee7-7fc6-47f7-9ece-2793ec87bd50,nback_real3,1,2,1218,3,16,4,6,9
s.cb72fee7-7fc6-47f7-9ece-2793ec87bd50,nback_real3,1,1,1130,1,17,9,4,6
s.cb72fee7-7fc6-47f7-9ece-2793ec87bd50,nback_real3,1,2,768,3,18,1,9,4
s.cb72fee7-7fc6-47f7-9ece-2793ec87bd50,nback_real3,1,2,1175,2,19,13,1,9
s.cb72fee7-7fc6-47f7-9ece-2793ec87bd50,nback_real3,1,1,731,1,20,9,13,1
s.cb72fee7-7fc6-47f7-9ece-2793ec87bd50,nback_real3,1,2,819,2,21,3,9,13
s.cb72fee7-7fc6-47f7-9ece-2793ec87bd50,nback_real3,1,2,711,2,22,1,3,9
s.cb72fee7-7fc6-47f7-9ece-2793ec87bd50,nback_real3,2,1,694,2,23,11,1,3
s.cb72fee7-7fc6-47f7-9ece-2793ec87bd50,nback_real3,1,2,671,2,24,8,11,1
s.cb72fee7-7fc6-47f7-9ece-2793ec87bd50,nback_real3,1,2,1541,3,25,10,8,11
s.cb72fee7-7fc6-47f7-9ece-2793ec87bd50,nback_real3,1,1,1005,1,26,11,10,8
s.cb72fee7-7fc6-47f7-9ece-2793ec87bd50,nback_real3,1,2,1602,3,27,15,11,10
s.cb72fee7-7fc6-47f7-9ece-2793ec87bd50,nback_real3,1,2,842,4,28,3,15,11
s.cb72fee7-7fc6-47f7-9ece-2793ec87bd50,nback_real3,1,2,902,4,29,2,3,15
s.cb72fee7-7fc6-47f7-9ece-2793ec87bd50,nback_real3,1,2,709,5,30,4,2,3
s.cb72fee7-7fc6-47f7-9ece-2793ec87bd50,nback_real4,1,2,1754,3,1,11,0,0
s.cb72fee7-7fc6-47f7-9ece-2793ec87bd50,nback_real4,1,2,706,3,2,2,11,0
s.cb72fee7-7fc6-47f7-9ece-2793ec87bd50,nback_real4,1,2,828,3,3,3,2,11
s.cb72fee7-7fc6-47f7-9ece-2793ec87bd50,nback_real4,1,2,552,2,4,15,3,2
s.cb72fee7-7fc6-47f7-9ece-2793ec87bd50,nback_real4,1,2,717,3,5,9,15,3
s.cb72fee7-7fc6-47f7-9ece-2793ec87bd50,nback_real4,1,2,921,2,6,8,9,15
s.cb72fee7-7fc6-47f7-9ece-2793ec87bd50,nback_real4,1,2,965,5,7,11,8,9
s.cb72fee7-7fc6-47f7-9ece-2793ec87bd50,nback_real4,1,2,830,3,8,5,11,8
s.cb72fee7-7fc6-47f7-9ece-2793ec87bd50,nback_real4,1,2,766,5,9,10,5,11
s.cb72fee7-7fc6-47f7-9ece-2793ec87bd50,nback_real4,2,2,976,1,10,11,10,5
s.cb72fee7-7fc6-47f7-9ece-2793ec87bd50,nback_real4,1,2,864,3,11,6,11,10
s.cb72fee7-7fc6-47f7-9ece-2793ec87bd50,nback_real4,1,2,1186,5,12,14,6,11
s.cb72fee7-7fc6-47f7-9ece-2793ec87bd50,nback_real4,1,2,1491,4,13,9,14,6
s.cb72fee7-7fc6-47f7-9ece-2793ec87bd50,nback_real4,1,1,1318,1,14,6,9,14
s.cb72fee7-7fc6-47f7-9ece-2793ec87bd50,nback_real4,1,2,1631,3,15,15,6,9
s.cb72fee7-7fc6-47f7-9ece-2793ec87bd50,nback_real4,1,2,1357,5,16,5,15,6
s.cb72fee7-7fc6-47f7-9ece-2793ec87bd50,nback_real4,1,1,1629,1,17,6,5,15
s.cb72fee7-7fc6-47f7-9ece-2793ec87bd50,nback_real4,1,2,863,5,18,3,6,5
s.cb72fee7-7fc6-47f7-9ece-2793ec87bd50,nback_real4,1,2,1071,4,19,10,3,6
s.cb72fee7-7fc6-47f7-9ece-2793ec87bd50,nback_real4,1,2,1425,5,20,5,10,3
s.cb72fee7-7fc6-47f7-9ece-2793ec87bd50,nback_real4,1,2,1007,5,21,13,5,10
s.cb72fee7-7fc6-47f7-9ece-2793ec87bd50,nback_real4,1,2,1089,4,22,9,13,5
s.cb72fee7-7fc6-47f7-9ece-2793ec87bd50,nback_real4,1,2,851,2,23,7,9,13
s.cb72fee7-7fc6-47f7-9ece-2793ec87bd50,nback_real4,1,2,848,2,24,11,7,9
s.cb72fee7-7fc6-47f7-9ece-2793ec87bd50,nback_real4,2,1,880,3,25,7,11,7
s.cb72fee7-7fc6-47f7-9ece-2793ec87bd50,nback_real4,1,2,1250,5,26,9,7,11
s.cb72fee7-7fc6-47f7-9ece-2793ec87bd50,nback_real4,1,2,795,3,27,12,9,7
s.cb72fee7-7fc6-47f7-9ece-2793ec87bd50,nback_real4,1,1,1175,1,28,7,12,9
s.cb72fee7-7fc6-47f7-9ece-2793ec87bd50,nback_real4,1,2,718,5,29,3,7,12
s.cb72fee7-7fc6-47f7-9ece-2793ec87bd50,nback_real4,1,2,1181,5,30,11,3,7
s.cb72fee7-7fc6-47f7-9ece-2793ec87bd50,nback_real5,1,2,404,3,1,12,0,0
s.cb72fee7-7fc6-47f7-9ece-2793ec87bd50,nback_real5,1,2,1201,2,2,12,12,0
s.cb72fee7-7fc6-47f7-9ece-2793ec87bd50,nback_real5,1,2,1027,2,3,3,12,12
s.cb72fee7-7fc6-47f7-9ece-2793ec87bd50,nback_real5,1,2,973,2,4,15,3,12
s.cb72fee7-7fc6-47f7-9ece-2793ec87bd50,nback_real5,1,2,797,5,5,7,15,3
s.cb72fee7-7fc6-47f7-9ece-2793ec87bd50,nback_real5,1,1,1988,1,6,3,7,15
s.cb72fee7-7fc6-47f7-9ece-2793ec87bd50,nback_real5,1,2,990,5,7,10,3,7
s.cb72fee7-7fc6-47f7-9ece-2793ec87bd50,nback_real5,1,2,1183,3,8,12,10,3
s.cb72fee7-7fc6-47f7-9ece-2793ec87bd50,nback_real5,1,2,932,5,9,8,12,10
s.cb72fee7-7fc6-47f7-9ece-2793ec87bd50,nback_real5,1,2,747,4,10,4,8,12
s.cb72fee7-7fc6-47f7-9ece-2793ec87bd50,nback_real5,1,2,635,3,11,13,4,8
s.cb72fee7-7fc6-47f7-9ece-2793ec87bd50,nback_real5,2,1,1319,5,12,15,13,4
s.cb72fee7-7fc6-47f7-9ece-2793ec87bd50,nback_real5,1,2,925,2,13,5,15,13
s.cb72fee7-7fc6-47f7-9ece-2793ec87bd50,nback_real5,1,2,1080,4,14,15,5,15
s.cb72fee7-7fc6-47f7-9ece-2793ec87bd50,nback_real5,1,2,624,2,15,11,15,5
s.cb72fee7-7fc6-47f7-9ece-2793ec87bd50,nback_real5,1,2,644,4,16,14,11,15
s.cb72fee7-7fc6-47f7-9ece-2793ec87bd50,nback_real5,1,2,723,3,17,5,14,11
s.cb72fee7-7fc6-47f7-9ece-2793ec87bd50,nback_real5,1,2,864,5,18,9,5,14
s.cb72fee7-7fc6-47f7-9ece-2793ec87bd50,nback_real5,1,2,717,2,19,6,9,5
s.cb72fee7-7fc6-47f7-9ece-2793ec87bd50,nback_real5,1,2,922,4,20,1,6,9
s.cb72fee7-7fc6-47f7-9ece-2793ec87bd50,nback_real5,1,2,608,2,21,3,1,6
s.cb72fee7-7fc6-47f7-9ece-2793ec87bd50,nback_real5,2,1,856,5,22,1,3,1
s.cb72fee7-7fc6-47f7-9ece-2793ec87bd50,nback_real5,1,2,666,2,23,8,1,3
s.cb72fee7-7fc6-47f7-9ece-2793ec87bd50,nback_real5,1,2,541,5,24,14,8,1
s.cb72fee7-7fc6-47f7-9ece-2793ec87bd50,nback_real5,2,1,1304,4,25,15,14,8
s.cb72fee7-7fc6-47f7-9ece-2793ec87bd50,nback_real5,1,2,628,4,26,12,15,14
s.cb72fee7-7fc6-47f7-9ece-2793ec87bd50,nback_real5,1,2,1211,3,27,3,12,15
s.cb72fee7-7fc6-47f7-9ece-2793ec87bd50,nback_real5,1,2,606,3,28,6,3,12
s.cb72fee7-7fc6-47f7-9ece-2793ec87bd50,nback_real5,1,2,854,4,29,4,6,3
s.cb72fee7-7fc6-47f7-9ece-2793ec87bd50,nback_real5,1,2,614,2,30,13,4,6
s.177aad54-45f8-4797-9ae2-0473d8953645,training,3,1,2000,5,1,14,0,0
s.177aad54-45f8-4797-9ae2-0473d8953645,training,3,1,2000,3,2,5,14,0
s.177aad54-45f8-4797-9ae2-0473d8953645,training,3,1,2000,3,3,14,5,14
s.177aad54-45f8-4797-9ae2-0473d8953645,training,1,2,1704,4,4,2,14,5
s.177aad54-45f8-4797-9ae2-0473d8953645,training,1,2,1035,2,5,2,2,14
s.177aad54-45f8-4797-9ae2-0473d8953645,training,1,2,896,4,6,15,2,2
s.177aad54-45f8-4797-9ae2-0473d8953645,training,1,2,876,2,7,13,15,2
s.177aad54-45f8-4797-9ae2-0473d8953645,training,1,2,637,4,8,1,13,15
s.177aad54-45f8-4797-9ae2-0473d8953645,training,1,2,533,3,9,7,1,13
s.177aad54-45f8-4797-9ae2-0473d8953645,training,1,2,543,2,10,8,7,1
s.177aad54-45f8-4797-9ae2-0473d8953645,training,2,1,653,5,11,2,8,7
s.177aad54-45f8-4797-9ae2-0473d8953645,training,2,1,1030,2,12,8,2,8
s.177aad54-45f8-4797-9ae2-0473d8953645,training,2,1,881,4,13,13,8,2
s.177aad54-45f8-4797-9ae2-0473d8953645,training,2,1,871,3,14,14,13,8
s.177aad54-45f8-4797-9ae2-0473d8953645,training,1,2,518,5,15,4,14,13
s.177aad54-45f8-4797-9ae2-0473d8953645,nback_real1,1,2,1427,1,1,1,4,14
s.177aad54-45f8-4797-9ae2-0473d8953645,nback_real1,1,2,389,3,2,2,1,4
s.177aad54-45f8-4797-9ae2-0473d8953645,nback_real1,1,2,1038,1,3,9,2,1
s.177aad54-45f8-4797-9ae2-0473d8953645,nback_real1,1,2,608,4,4,4,9,2
s.177aad54-45f8-4797-9ae2-0473d8953645,nback_real1,2,1,1562,4,5,1,4,9
s.177aad54-45f8-4797-9ae2-0473d8953645,nback_real1,2,1,1505,2,6,1,1,4
s.177aad54-45f8-4797-9ae2-0473d8953645,nback_real1,2,1,1926,4,7,12,1,1
s.177aad54-45f8-4797-9ae2-0473d8953645,nback_real1,1,1,1829,1,8,1,12,1
s.177aad54-45f8-4797-9ae2-0473d8953645,nback_real1,1,2,456,4,9,15,1,12
s.177aad54-45f8-4797-9ae2-0473d8953645,nback_real1,1,2,622,2,10,10,15,1
s.177aad54-45f8-4797-9ae2-0473d8953645,nback_real1,1,2,1022,5,11,15,10,15
s.177aad54-45f8-4797-9ae2-0473d8953645,nback_real1,1,2,951,5,12,9,15,10
s.177aad54-45f8-4797-9ae2-0473d8953645,nback_real1,1,1,639,1,13,10,9,15
s.177aad54-45f8-4797-9ae2-0473d8953645,nback_real1,1,2,473,5,14,4,10,9
s.177aad54-45f8-4797-9ae2-0473d8953645,nback_real1,1,2,511,5,15,6,4,10
s.177aad54-45f8-4797-9ae2-0473d8953645,nback_real1,1,2,531,5,16,13,6,4
s.177aad54-45f8-4797-9ae2-0473d8953645,nback_real1,1,2,572,4,17,5,13,6
s.177aad54-45f8-4797-9ae2-0473d8953645,nback_real1,1,2,1018,5,18,12,5,13
s.177aad54-45f8-4797-9ae2-0473d8953645,nback_real1,1,2,908,5,19,1,12,5
s.177aad54-45f8-4797-9ae2-0473d8953645,nback_real1,1,2,509,2,20,2,1,12
s.177aad54-45f8-4797-9ae2-0473d8953645,nback_real1,2,2,1003,1,21,12,2,1
s.177aad54-45f8-4797-9ae2-0473d8953645,nback_real1,2,2,1135,1,22,1,12,2
s.177aad54-45f8-4797-9ae2-0473d8953645,nback_real1,1,2,809,3,23,4,1,12
s.177aad54-45f8-4797-9ae2-0473d8953645,nback_real1,1,2,604,4,24,6,4,1
s.177aad54-45f8-4797-9ae2-0473d8953645,nback_real1,1,2,530,3,25,10,6,4
s.177aad54-45f8-4797-9ae2-0473d8953645,nback_real1,1,2,1121,5,26,6,10,6
s.177aad54-45f8-4797-9ae2-0473d8953645,nback_real1,1,2,862,4,27,3,6,10
s.177aad54-45f8-4797-9ae2-0473d8953645,nback_real1,1,2,724,4,28,14,3,6
s.177aad54-45f8-4797-9ae2-0473d8953645,nback_real1,1,2,540,5,29,12,14,3
s.177aad54-45f8-4797-9ae2-0473d8953645,nback_real1,1,2,569,3,30,1,12,14
s.177aad54-45f8-4797-9ae2-0473d8953645,nback_real2,1,2,1435,1,1,6,0,0
s.177aad54-45f8-4797-9ae2-0473d8953645,nback_real2,1,2,522,2,2,1,6,0
s.177aad54-45f8-4797-9ae2-0473d8953645,nback_real2,1,2,857,4,3,11,1,6
s.177aad54-45f8-4797-9ae2-0473d8953645,nback_real2,1,2,1790,2,4,13,11,1
s.177aad54-45f8-4797-9ae2-0473d8953645,nback_real2,1,2,1190,2,5,12,13,11
s.177aad54-45f8-4797-9ae2-0473d8953645,nback_real2,3,1,2000,4,6,7,12,13
s.177aad54-45f8-4797-9ae2-0473d8953645,nback_real2,1,2,976,2,7,9,7,12
s.177aad54-45f8-4797-9ae2-0473d8953645,nback_real2,1,2,509,2,8,6,9,7
s.177aad54-45f8-4797-9ae2-0473d8953645,nback_real2,1,2,547,2,9,9,6,9
s.177aad54-45f8-4797-9ae2-0473d8953645,nback_real2,1,2,518,5,10,10,9,6
s.177aad54-45f8-4797-9ae2-0473d8953645,nback_real2,1,2,536,5,11,14,10,9
s.177aad54-45f8-4797-9ae2-0473d8953645,nback_real2,1,2,522,2,12,10,14,10
s.177aad54-45f8-4797-9ae2-0473d8953645,nback_real2,2,2,568,1,13,10,10,14
s.177aad54-45f8-4797-9ae2-0473d8953645,nback_real2,2,2,511,1,14,14,10,10
s.177aad54-45f8-4797-9ae2-0473d8953645,nback_real2,1,2,517,3,15,7,14,10
s.177aad54-45f8-4797-9ae2-0473d8953645,nback_real2,1,2,506,5,16,13,7,14
s.177aad54-45f8-4797-9ae2-0473d8953645,nback_real2,1,2,442,3,17,11,13,7
s.177aad54-45f8-4797-9ae2-0473d8953645,nback_real2,1,2,522,5,18,15,11,13
s.177aad54-45f8-4797-9ae2-0473d8953645,nback_real2,1,2,433,5,19,9,15,11
s.177aad54-45f8-4797-9ae2-0473d8953645,nback_real2,1,2,480,2,20,2,9,15
s.177aad54-45f8-4797-9ae2-0473d8953645,nback_real2,1,2,461,5,21,1,2,9
s.177aad54-45f8-4797-9ae2-0473d8953645,nback_real2,2,2,514,1,22,9,1,2
s.177aad54-45f8-4797-9ae2-0473d8953645,nback_real2,1,2,496,4,23,12,9,1
s.177aad54-45f8-4797-9ae2-0473d8953645,nback_real2,1,2,465,5,24,14,12,9
s.177aad54-45f8-4797-9ae2-0473d8953645,nback_real2,2,2,458,1,25,9,14,12
s.177aad54-45f8-4797-9ae2-0473d8953645,nback_real2,1,2,459,3,26,11,9,14
s.177aad54-45f8-4797-9ae2-0473d8953645,nback_real2,1,2,479,4,27,4,11,9
s.177aad54-45f8-4797-9ae2-0473d8953645,nback_real2,2,1,497,4,28,11,4,11
s.177aad54-45f8-4797-9ae2-0473d8953645,nback_real2,1,2,552,5,29,2,11,4
s.177aad54-45f8-4797-9ae2-0473d8953645,nback_real2,1,2,486,5,30,7,2,11
s.177aad54-45f8-4797-9ae2-0473d8953645,nback_real3,1,2,790,3,1,15,0,0
s.177aad54-45f8-4797-9ae2-0473d8953645,nback_real3,1,2,421,1,2,8,15,0
s.177aad54-45f8-4797-9ae2-0473d8953645,nback_real3,1,2,301,2,3,4,8,15
s.177aad54-45f8-4797-9ae2-0473d8953645,nback_real3,1,2,788,2,4,4,4,8
s.177aad54-45f8-4797-9ae2-0473d8953645,nback_real3,1,2,478,2,5,13,4,4
s.177aad54-45f8-4797-9ae2-0473d8953645,nback_real3,1,1,463,1,6,4,13,4
s.177aad54-45f8-4797-9ae2-0473d8953645,nback_real3,1,1,889,1,7,4,4,13
s.177aad54-45f8-4797-9ae2-0473d8953645,nback_real3,1,2,512,2,8,9,4,4
s.177aad54-45f8-4797-9ae2-0473d8953645,nback_real3,1,2,430,3,9,2,9,4
s.177aad54-45f8-4797-9ae2-0473d8953645,nback_real3,1,2,440,3,10,5,2,9
s.177aad54-45f8-4797-9ae2-0473d8953645,nback_real3,2,1,765,4,11,8,5,2
s.177aad54-45f8-4797-9ae2-0473d8953645,nback_real3,1,2,560,4,12,11,8,5
s.177aad54-45f8-4797-9ae2-0473d8953645,nback_real3,1,2,698,3,13,13,11,8
s.177aad54-45f8-4797-9ae2-0473d8953645,nback_real3,1,2,578,5,14,10,13,11
s.177aad54-45f8-4797-9ae2-0473d8953645,nback_real3,2,2,498,1,15,11,10,13
s.177aad54-45f8-4797-9ae2-0473d8953645,nback_real3,1,2,587,2,16,6,11,10
